timestamp,qw,qx,qy,qz,altitude,ax,ay,az,gx,gy,gz,temp
4948167,0.99,0.11,0.07,-0.01,-0.03,-1.37,2.10,9.66,-0.01,-0.03,-0.02,27.65
4957782,0.99,0.11,0.07,-0.01,-0.03,-1.37,2.10,9.66,-0.01,0.04,-0.02,27.65
4967397,0.99,0.11,0.07,-0.01,-0.03,-1.36,2.10,9.67,-0.01,-0.03,-0.02,27.65
4977012,0.99,0.11,0.07,-0.01,0.14,-1.35,2.10,9.67,-0.08,-0.03,-0.02,27.60
4986627,0.99,0.11,0.07,-0.01,0.14,-1.37,2.12,9.65,-0.08,-0.03,-0.02,27.60
4996242,0.99,0.11,0.07,-0.01,0.14,-1.36,2.10,9.65,-0.08,0.04,-0.02,27.62
5005857,0.99,0.11,0.07,-0.01,0.14,-1.36,2.11,9.66,-0.01,-0.03,-0.02,27.62
5015472,0.99,0.11,0.07,-0.01,0.14,-1.36,2.11,9.66,-0.01,0.04,-0.02,27.64
5025087,0.99,0.11,0.07,-0.01,0.14,-1.36,2.11,9.67,-0.08,-0.03,-0.02,27.64
5034702,0.99,0.11,0.07,-0.01,-0.10,-1.35,2.10,9.66,-0.08,0.04,-0.02,27.58
5044317,0.99,0.11,0.07,-0.01,-0.10,-1.36,2.10,9.66,-0.08,-0.03,-0.02,27.58
5053932,0.99,0.11,0.07,-0.01,-0.10,-1.35,2.10,9.66,-0.01,-0.03,-0.02,27.61
5063547,0.99,0.11,0.07,-0.01,-0.10,-1.36,2.11,9.65,-0.01,0.04,-0.02,27.61
5073162,0.99,0.11,0.07,-0.01,-0.10,-1.36,2.10,9.66,-0.01,0.04,0.05,27.64
5082777,0.99,0.11,0.07,-0.01,-0.10,-1.38,2.11,9.67,-0.01,0.04,0.05,27.64
5092392,0.99,0.11,0.07,-0.01,-0.10,-1.38,2.09,9.64,0.06,0.04,-0.02,27.64
5102007,0.99,0.11,0.07,-0.01,-0.21,-1.35,2.10,9.66,0.13,0.04,0.05,27.64
5111622,0.99,0.11,0.07,-0.01,-0.21,-1.35,2.10,9.66,0.13,0.04,-0.02,27.60
5121237,0.99,0.11,0.07,-0.01,-0.21,-1.37,2.10,9.66,0.13,0.04,-0.02,27.60
5130852,0.99,0.11,0.07,-0.01,-0.21,-1.36,2.11,9.67,0.06,0.04,-0.02,27.62
5140467,0.99,0.11,0.07,-0.01,-0.21,-1.39,2.11,9.65,-0.01,0.04,0.05,27.62
5150082,0.99,0.11,0.07,-0.01,-0.21,-1.37,2.11,9.66,-0.01,0.04,-0.02,27.62
5159697,0.99,0.11,0.07,-0.01,-0.21,-1.35,2.11,9.64,-0.01,-0.03,0.05,27.62
5169312,0.99,0.11,0.07,-0.01,-0.18,-1.36,2.10,9.65,-0.01,0.04,-0.02,27.61
5178927,0.99,0.11,0.07,-0.01,-0.18,-1.36,2.10,9.65,-0.01,0.04,-0.02,27.61
5188542,0.99,0.11,0.07,-0.01,-0.18,-1.37,2.11,9.66,0.06,0.04,-0.02,27.63
5198157,0.99,0.11,0.07,-0.01,-0.18,-1.37,2.10,9.65,0.06,0.04,-0.02,27.63
5207772,0.99,0.11,0.07,-0.01,-0.18,-1.36,2.10,9.66,-0.01,0.04,-0.02,27.64
5217387,0.99,0.11,0.07,-0.01,-0.18,-1.36,2.10,9.66,-0.08,0.04,0.05,27.64
5227002,0.99,0.11,0.07,-0.01,-0.18,-1.36,2.10,9.65,-0.01,0.04,0.05,27.63
5236617,0.99,0.11,0.07,-0.01,-0.08,-1.36,2.10,9.65,0.06,0.04,0.05,27.63
5246232,0.99,0.11,0.07,-0.01,-0.08,-1.34,2.10,9.65,-0.01,-0.03,0.05,27.62
5255847,0.99,0.11,0.07,-0.01,-0.08,-1.37,2.10,9.66,-0.01,0.04,0.05,27.62
5265462,0.99,0.11,0.07,-0.01,-0.08,-1.37,2.11,9.66,0.06,0.04,-0.02,27.63
5275077,0.99,0.11,0.07,-0.01,-0.08,-1.36,2.11,9.65,-0.01,0.04,0.05,27.63
5284692,0.99,0.11,0.07,-0.01,-0.08,-1.35,2.08,9.67,-0.01,0.04,0.05,27.63
5294307,0.99,0.11,0.07,-0.01,-0.08,-1.38,2.11,9.64,-0.08,0.04,0.05,27.67
5303922,0.99,0.11,0.07,-0.01,-0.01,-1.38,2.10,9.65,0.06,0.04,0.05,27.67
5313537,0.99,0.11,0.07,-0.01,-0.01,-1.36,2.10,9.66,0.13,0.04,-0.02,27.62
5323152,0.99,0.11,0.07,-0.01,-0.01,-1.38,2.11,9.66,0.13,0.04,-0.02,27.62
5332767,0.99,0.11,0.07,-0.01,-0.01,-1.37,2.12,9.66,-0.08,-0.03,-0.02,27.61
5342382,0.99,0.11,0.07,-0.01,-0.01,-1.37,2.12,9.66,-0.22,-0.03,0.05,27.61
5351997,0.99,0.11,0.07,-0.01,-0.01,-1.34,2.10,9.66,-0.15,0.04,-0.02,27.60
5361612,0.99,0.11,0.07,-0.01,-0.13,-1.37,2.10,9.65,-0.01,0.04,-0.02,27.60
5371227,0.99,0.11,0.07,-0.01,-0.13,-1.35,2.11,9.65,0.06,-0.03,-0.02,27.62
5380842,0.99,0.11,0.07,-0.01,-0.13,-1.38,2.12,9.66,-0.01,-0.03,-0.02,27.62
5390457,0.99,0.11,0.07,-0.01,-0.13,-1.37,2.12,9.66,-0.08,-0.03,-0.02,27.62
5400072,0.99,0.11,0.07,-0.01,-0.13,-1.35,2.11,9.66,-0.15,-0.03,-0.02,27.62
5409687,0.99,0.11,0.07,-0.01,-0.13,-1.36,2.10,9.66,-0.15,-0.03,-0.02,27.61
5419302,0.99,0.11,0.07,-0.01,-0.13,-1.37,2.12,9.66,-0.08,-0.03,0.05,27.61
5428917,0.99,0.11,0.07,-0.01,-0.08,-1.37,2.11,9.66,-0.01,0.04,-0.02,27.65
5438532,0.99,0.11,0.07,-0.01,-0.08,-1.37,2.11,9.66,-0.01,0.04,-0.02,27.65
5448147,0.99,0.11,0.07,-0.01,-0.08,-1.36,2.11,9.64,-0.08,-0.03,-0.02,27.60
5457762,0.99,0.11,0.07,-0.01,-0.08,-1.37,2.11,9.66,-0.08,-0.03,-0.02,27.60
5467377,0.99,0.11,0.07,-0.01,-0.08,-1.38,2.10,9.65,-0.08,-0.03,-0.02,27.65
5476992,0.99,0.11,0.07,-0.01,-0.08,-1.38,2.12,9.66,-0.08,-0.03,-0.02,27.65
5486607,0.99,0.11,0.07,-0.01,-0.08,-1.38,2.12,9.66,-0.08,-0.03,-0.02,27.68
5496222,0.99,0.11,0.07,-0.01,-0.10,-1.36,2.10,9.64,-0.08,0.04,-0.02,27.68
5505837,0.99,0.11,0.07,-0.01,-0.10,-1.36,2.12,9.65,-0.08,0.04,-0.02,27.64
5515452,0.99,0.11,0.07,-0.01,-0.10,-1.36,2.12,9.66,-0.08,-0.03,-0.02,27.64
5525067,0.99,0.11,0.07,-0.01,-0.10,-1.37,2.12,9.65,-0.01,-0.03,-0.02,27.63
5534682,0.99,0.11,0.07,-0.01,-0.10,-1.37,2.12,9.65,-0.08,-0.03,-0.02,27.63
5544297,0.99,0.11,0.07,-0.01,-0.10,-1.38,2.11,9.65,-0.15,-0.03,-0.02,27.63
5553912,0.99,0.11,0.07,-0.01,-0.10,-1.36,2.12,9.64,-0.08,0.04,-0.02,27.63
5563527,0.99,0.11,0.07,-0.01,-0.20,-1.36,2.10,9.63,-0.01,0.04,-0.02,27.66
5573142,0.99,0.11,0.07,-0.01,-0.20,-1.37,2.11,9.65,-0.08,0.04,-0.02,27.66
5582757,0.99,0.11,0.07,-0.01,-0.20,-1.35,2.11,9.66,-0.08,-0.03,-0.02,27.63
5592372,0.99,0.11,0.07,-0.01,-0.20,-1.38,2.12,9.66,-0.08,-0.03,-0.02,27.63
5601987,0.99,0.11,0.07,-0.01,-0.20,-1.37,2.10,9.66,-0.08,-0.03,-0.02,27.66
5611602,0.99,0.11,0.07,-0.01,-0.20,-1.37,2.11,9.65,-0.08,-0.03,-0.02,27.66
5621217,0.99,0.11,0.07,-0.01,-0.20,-1.38,2.12,9.64,-0.08,-0.03,-0.02,27.64
5630832,0.99,0.11,0.07,-0.01,-0.13,-1.37,2.12,9.64,-0.08,-0.03,-0.02,27.64
5640447,0.99,0.11,0.07,-0.01,-0.13,-1.37,2.11,9.67,-0.08,-0.03,-0.02,27.62
5650062,0.99,0.11,0.07,-0.01,-0.13,-1.38,2.12,9.63,-0.08,-0.03,-0.02,27.62
5659677,0.99,0.11,0.07,-0.01,-0.13,-1.38,2.11,9.66,-0.08,-0.03,-0.09,27.64
5669292,0.99,0.11,0.07,-0.01,-0.13,-1.37,2.12,9.66,-0.08,0.04,-0.02,27.64
5678907,0.99,0.11,0.07,-0.01,-0.13,-1.36,2.11,9.66,-0.08,0.04,-0.02,27.64
5688522,0.99,0.11,0.07,-0.01,-0.01,-1.35,2.11,9.65,-0.08,0.04,-0.02,27.61
5698137,0.99,0.11,0.07,-0.01,-0.01,-1.35,2.11,9.64,-0.08,0.04,-0.02,27.61
5707752,0.99,0.11,0.07,-0.01,-0.01,-1.37,2.12,9.64,-0.15,-0.03,-0.02,27.61
5717367,0.99,0.11,0.07,-0.01,-0.01,-1.38,2.12,9.67,-0.08,-0.03,-0.02,27.61
5726982,0.99,0.11,0.07,-0.01,-0.01,-1.38,2.11,9.66,-0.01,-0.03,-0.02,27.62
5736597,0.99,0.11,0.07,-0.01,-0.01,-1.33,2.12,9.61,-0.08,-0.03,-0.02,27.62
5746212,0.99,0.11,0.07,-0.01,-0.01,-1.44,2.07,9.70,-0.43,0.18,0.12,27.64
5755827,0.99,0.11,0.07,-0.01,-0.07,-1.34,2.12,9.65,0.76,0.04,-0.02,27.64
5765442,0.99,0.11,0.07,-0.01,-0.07,-1.34,2.13,9.63,0.27,-0.03,0.26,27.61
5775057,0.99,0.11,0.07,-0.01,-0.07,-1.40,2.09,9.61,-0.08,0.11,0.26,27.61
5784672,0.99,0.11,0.07,-0.01,-0.07,-1.31,2.14,9.73,-0.01,0.11,-0.09,27.63
5794287,0.99,0.11,0.07,-0.01,-0.07,-1.43,2.09,9.66,-0.08,0.18,0.33,27.63
5803902,0.99,0.11,0.07,-0.01,-0.07,-1.34,2.17,9.65,0.27,-0.03,-0.02,27.66
5813517,0.99,0.11,0.07,-0.01,-0.07,-1.36,2.11,9.66,-0.57,-0.24,0.40,27.66
5823132,0.99,0.11,0.07,-0.01,-0.19,-1.35,2.13,9.64,-0.43,-0.45,0.68,27.61
5832747,0.99,0.11,0.07,-0.01,-0.19,-1.39,2.09,9.66,-0.71,-0.17,0.68,27.61
5842362,0.99,0.11,0.07,-0.01,-0.19,-1.38,2.10,9.68,-0.08,0.04,-0.02,27.61
5851977,0.99,0.11,0.07,-0.01,-0.19,-1.36,2.13,9.64,0.34,-0.10,-0.02,27.61
5861592,0.99,0.11,0.07,-0.01,-0.19,-1.36,2.12,9.65,-0.22,-0.10,-0.02,27.61
5871207,0.99,0.11,0.07,-0.01,-0.19,-1.37,2.08,9.66,-0.36,-0.03,0.05,27.61
5880822,0.99,0.11,0.07,-0.01,-0.19,-1.36,2.09,9.66,-0.01,0.04,-0.02,27.62
5890437,0.99,0.11,0.07,-0.01,0.04,-1.36,2.11,9.65,0.13,0.04,-0.02,27.62
5900052,0.99,0.11,0.07,-0.01,0.04,-1.36,2.13,9.64,-0.15,-0.10,-0.02,27.62
5909667,0.99,0.11,0.07,-0.01,0.04,-1.35,2.10,9.65,-0.29,-0.10,-0.02,27.62
5919282,0.99,0.11,0.07,-0.01,0.04,-1.38,2.09,9.66,-0.01,-0.03,-0.02,27.62
5928897,0.99,0.11,0.07,-0.01,0.04,-1.37,2.13,9.65,-0.01,0.11,-0.02,27.62
5938512,0.99,0.11,0.07,-0.01,0.04,-1.38,2.14,9.65,-0.08,0.04,-0.02,27.65
5948127,0.99,0.11,0.07,-0.01,0.09,-1.35,2.10,9.65,-0.15,-0.10,-0.02,27.65
5957742,0.99,0.11,0.07,-0.01,0.09,-1.35,2.10,9.65,-0.15,-0.10,-0.02,27.65
5967357,0.99,0.11,0.07,-0.01,0.09,-1.35,2.11,9.65,-0.01,-0.03,-0.02,27.65
5976972,0.99,0.11,0.07,-0.01,0.09,-1.38,2.12,9.65,-0.08,-0.03,-0.02,27.69
5986587,0.99,0.11,0.07,-0.01,0.09,-1.37,2.12,9.65,-0.15,-0.10,-0.02,27.69
5996202,0.99,0.11,0.07,-0.01,0.09,-1.37,2.11,9.65,-0.15,-0.03,-0.02,27.63
6005817,0.99,0.11,0.07,-0.01,0.09,-1.37,2.11,9.65,-0.08,-0.03,-0.02,27.63
6015432,0.99,0.11,0.07,-0.01,-0.20,-1.36,2.12,9.66,-0.08,-0.03,-0.02,27.64
6025047,0.99,0.11,0.07,-0.01,-0.20,-1.37,2.12,9.65,-0.15,-0.03,-0.02,27.64
6034662,0.99,0.11,0.07,-0.01,-0.20,-1.35,2.11,9.64,-0.15,-0.03,-0.09,27.65
6044277,0.99,0.11,0.07,-0.01,-0.20,-1.36,2.11,9.65,-0.15,-0.03,-0.02,27.65
6053892,0.99,0.11,0.07,-0.01,-0.20,-1.36,2.11,9.64,-0.15,-0.03,-0.02,27.65
6063507,0.99,0.11,0.07,-0.01,-0.20,-1.38,2.12,9.65,-0.08,-0.03,-0.02,27.62
6073122,0.99,0.11,0.07,-0.01,-0.20,-1.37,2.10,9.66,-0.08,-0.03,-0.02,27.62
6082737,0.99,0.11,0.07,-0.01,-0.08,-1.37,2.10,9.65,-0.08,-0.03,-0.02,27.62
6092352,0.99,0.11,0.07,-0.01,-0.08,-1.37,2.10,9.65,-0.08,-0.03,-0.02,27.62
6101967,0.99,0.11,0.07,-0.01,-0.08,-1.35,2.12,9.66,-0.15,-0.03,-0.02,27.66
6111582,0.99,0.11,0.07,-0.01,-0.08,-1.36,2.12,9.66,-0.15,-0.03,-0.02,27.66
6121197,0.99,0.11,0.07,-0.01,-0.08,-1.37,2.12,9.66,-0.15,-0.03,-0.02,27.61
6130812,0.99,0.11,0.07,-0.01,-0.08,-1.37,2.12,9.66,-0.15,-0.03,-0.02,27.61
6140427,0.99,0.11,0.07,-0.01,-0.08,-1.36,2.11,9.65,-0.15,-0.03,-0.02,27.62
6150042,0.99,0.11,0.07,-0.01,-0.08,-1.35,2.12,9.66,-0.15,-0.03,-0.02,27.62
6159657,0.99,0.11,0.07,-0.01,-0.08,-1.37,2.11,9.65,-0.15,-0.10,-0.02,27.62
6169272,0.99,0.11,0.07,-0.01,-0.08,-1.36,2.13,9.65,-0.08,-0.03,-0.02,27.62
6178887,0.99,0.11,0.07,-0.01,-0.08,-1.37,2.12,9.64,-0.15,-0.03,-0.02,27.62
6188502,0.99,0.11,0.07,-0.01,-0.08,-1.35,2.14,9.66,-0.15,-0.03,-0.02,27.62
6198117,0.99,0.11,0.07,-0.01,-0.08,-1.38,2.12,9.66,-0.15,-0.03,-0.02,27.61
6207732,0.99,0.11,0.07,-0.01,-0.08,-1.37,2.12,9.67,-0.08,0.04,-0.02,27.61
6217347,0.99,0.11,0.07,-0.01,-0.10,-1.37,2.14,9.64,-0.08,-0.03,-0.02,27.61
6226962,0.99,0.11,0.07,-0.01,-0.10,-1.36,2.12,9.64,-0.15,-0.03,-0.02,27.61
6236577,0.99,0.11,0.07,-0.01,-0.10,-1.37,2.11,9.65,-0.15,-0.03,-0.02,27.62
6246192,0.99,0.11,0.07,-0.01,-0.10,-1.36,2.11,9.65,-0.08,-0.03,-0.02,27.62
6255807,0.99,0.11,0.07,-0.01,-0.10,-1.37,2.12,9.65,-0.08,-0.03,-0.02,27.62
6265422,0.99,0.11,0.07,-0.01,-0.10,-1.37,2.11,9.65,-0.08,0.04,-0.02,27.62
6275037,0.99,0.11,0.07,-0.01,-0.10,-1.37,2.12,9.64,-0.15,0.04,-0.02,27.61
6284652,0.99,0.11,0.07,-0.01,-0.22,-1.36,2.11,9.65,-0.08,0.04,-0.02,27.61
6294267,0.99,0.11,0.07,-0.01,-0.22,-1.38,2.14,9.65,-0.08,-0.03,-0.02,27.64
6303882,0.99,0.11,0.07,-0.01,-0.22,-1.37,2.11,9.65,-0.08,-0.03,-0.02,27.64
6313497,0.99,0.11,0.07,-0.01,-0.22,-1.37,2.12,9.65,-0.15,-0.03,-0.09,27.63
6323112,0.99,0.11,0.07,-0.01,-0.22,-1.36,2.11,9.65,-0.15,-0.03,-0.02,27.63
6332727,0.99,0.11,0.07,-0.01,-0.22,-1.35,2.14,9.66,-0.15,-0.03,-0.02,27.61
6342342,0.99,0.11,0.07,-0.01,-0.12,-1.37,2.12,9.66,-0.15,-0.03,-0.02,27.61
6351957,0.99,0.11,0.07,-0.01,-0.12,-1.37,2.11,9.65,-0.15,-0.03,0.05,27.65
6361572,0.99,0.11,0.07,-0.01,-0.12,-1.36,2.11,9.65,-0.15,-0.03,-0.02,27.65
6371187,0.99,0.11,0.07,-0.01,-0.12,-1.37,2.11,9.65,-0.08,-0.03,-0.02,27.64
6380802,0.99,0.11,0.07,-0.01,-0.12,-1.38,2.12,9.65,-0.08,-0.03,-0.02,27.64
6390417,0.99,0.11,0.07,-0.01,-0.12,-1.37,2.11,9.64,-0.15,-0.03,-0.02,27.64
6400032,0.99,0.11,0.07,-0.01,-0.12,-1.37,2.12,9.64,-0.15,-0.03,-0.02,27.64
6409647,0.99,0.11,0.07,-0.01,-0.17,-1.36,2.12,9.66,-0.15,-0.03,-0.02,27.69
6419262,0.99,0.11,0.07,-0.01,-0.17,-1.37,2.12,9.64,-0.15,-0.03,-0.02,27.69
6428877,0.99,0.11,0.07,-0.01,-0.17,-1.38,2.12,9.65,-0.15,-0.03,-0.02,27.68
6438492,0.99,0.11,0.07,-0.01,-0.17,-1.36,2.11,9.65,-0.08,-0.03,-0.02,27.68
6448107,0.99,0.11,0.07,-0.01,-0.17,-1.38,2.12,9.65,-0.08,-0.03,-0.02,27.68
6457722,0.99,0.11,0.07,-0.01,-0.17,-1.38,2.12,9.65,-0.15,-0.03,-0.02,27.59
6467337,0.99,0.11,0.07,-0.01,-0.17,-1.38,2.12,9.65,-0.08,-0.03,-0.02,27.59
6476952,0.99,0.11,0.07,-0.01,-0.11,-1.36,2.11,9.65,-0.15,-0.03,-0.02,27.64
6486567,0.99,0.11,0.07,-0.01,-0.11,-1.36,2.11,9.65,-0.15,-0.03,-0.02,27.64
6496182,0.99,0.11,0.07,-0.01,-0.11,-1.36,2.13,9.66,-0.15,0.04,-0.02,27.66
6505797,0.99,0.11,0.07,-0.01,-0.11,-1.35,2.10,9.67,-0.15,-0.03,-0.02,27.66
6515412,0.99,0.11,0.07,-0.01,-0.11,-1.38,2.11,9.66,-0.15,-0.03,-0.02,27.63
6525027,0.99,0.11,0.07,-0.01,-0.11,-1.36,2.11,9.66,-0.08,-0.03,-0.02,27.63
6534642,0.99,0.11,0.07,-0.01,-0.11,-1.36,2.12,9.65,-0.15,0.04,-0.02,27.61
6544257,0.99,0.11,0.07,-0.01,-0.07,-1.38,2.12,9.63,-0.15,-0.03,-0.09,27.61
6553872,0.99,0.11,0.07,-0.01,-0.07,-1.36,2.12,9.65,-0.15,-0.03,-0.02,27.61
6563487,0.99,0.11,0.07,-0.01,-0.07,-1.36,2.13,9.64,-0.15,-0.03,-0.02,27.61
6573102,0.99,0.11,0.07,-0.01,-0.07,-1.36,2.11,9.63,-0.15,-0.03,-0.02,27.64
6582717,0.99,0.11,0.07,-0.01,-0.07,-1.38,2.11,9.65,-0.15,-0.03,-0.02,27.64
6592332,0.99,0.11,0.07,-0.01,-0.07,-1.36,2.12,9.67,-0.08,-0.03,-0.02,27.63
6601947,0.99,0.11,0.07,-0.01,0.14,-1.37,2.11,9.64,-0.08,-0.03,-0.02,27.63
6611562,0.99,0.11,0.07,-0.01,0.14,-1.36,2.12,9.66,-0.15,-0.03,-0.02,27.66
6621177,0.99,0.11,0.07,-0.01,0.14,-1.37,2.12,9.65,-0.15,-0.03,-0.02,27.66
6630792,0.99,0.11,0.07,-0.01,0.14,-1.35,2.10,9.64,-0.08,-0.03,-0.02,27.65
6640407,0.99,0.11,0.07,-0.01,0.14,-1.37,2.11,9.65,-0.08,-0.03,-0.02,27.65
6650022,0.99,0.11,0.07,-0.01,0.14,-1.36,2.12,9.66,-0.08,-0.03,-0.02,27.64
6659637,0.99,0.11,0.07,-0.01,0.14,-1.36,2.12,9.65,-0.15,-0.03,-0.02,27.64
6669252,0.99,0.11,0.07,-0.01,-0.16,-1.37,2.12,9.65,-0.15,0.04,-0.02,27.61
6678867,0.99,0.11,0.07,-0.01,-0.16,-1.37,2.12,9.66,-0.08,0.04,-0.02,27.61
6688482,0.99,0.11,0.07,-0.01,-0.16,-1.36,2.11,9.65,-0.15,0.04,-0.02,27.65
6698097,0.99,0.11,0.07,-0.01,-0.16,-1.35,2.12,9.66,-0.15,-0.03,-0.02,27.65
6707712,0.99,0.11,0.07,-0.01,-0.16,-1.35,2.11,9.65,-0.08,0.04,-0.02,27.68
6717327,0.99,0.11,0.07,-0.01,-0.16,-1.37,2.12,9.64,-0.08,-0.03,-0.02,27.68
6726942,0.99,0.11,0.07,-0.01,-0.16,-1.38,2.13,9.64,-0.15,-0.03,-0.02,27.62
6736557,0.99,0.11,0.07,-0.01,0.06,-1.37,2.11,9.66,-0.15,-0.03,-0.02,27.62
6746172,0.99,0.11,0.07,-0.01,0.06,-1.37,2.12,9.66,-0.15,-0.03,-0.02,27.67
6755787,0.99,0.11,0.07,-0.01,0.06,-1.37,2.12,9.65,-0.15,-0.03,-0.02,27.67
6765402,0.99,0.11,0.07,-0.01,0.06,-1.37,2.12,9.65,-0.08,-0.03,-0.02,27.63
6775017,0.99,0.11,0.07,-0.01,0.06,-1.36,2.12,9.66,-0.15,-0.03,-0.02,27.63
6784632,0.99,0.11,0.07,-0.01,0.06,-1.34,2.11,9.65,-0.15,-0.03,-0.02,27.66
6794247,0.99,0.11,0.07,-0.01,0.06,-1.36,2.11,9.65,-0.08,-0.03,-0.02,27.66
6803862,0.99,0.11,0.07,-0.01,0.04,-1.35,2.10,9.64,-0.15,0.04,-0.02,27.64
6813477,0.99,0.11,0.07,-0.01,0.04,-1.37,2.10,9.66,-0.15,-0.03,-0.02,27.64
6823092,0.99,0.11,0.07,-0.01,0.04,-1.35,2.10,9.66,-0.08,-0.03,-0.02,27.64
6832707,0.99,0.11,0.07,-0.01,0.04,-1.36,2.11,9.66,-0.08,-0.03,-0.02,27.64
6842322,0.99,0.11,0.07,-0.01,0.04,-1.35,2.12,9.64,-0.08,-0.03,-0.02,27.64
6851937,0.99,0.11,0.07,-0.01,0.04,-1.37,2.11,9.67,-0.15,-0.03,-0.02,27.63
6861552,0.99,0.11,0.07,-0.01,0.04,-1.37,2.11,9.65,-0.08,0.04,-0.02,27.63
6871167,0.99,0.11,0.07,-0.01,0.02,-1.37,2.10,9.65,-0.15,-0.03,-0.02,27.65
6880782,0.99,0.11,0.07,-0.01,0.02,-1.36,2.11,9.65,-0.15,-0.03,-0.02,27.65
6890397,0.99,0.11,0.07,-0.01,0.02,-1.36,2.11,9.65,-0.08,-0.03,-0.02,27.66
6900012,0.99,0.11,0.07,-0.01,0.02,-1.36,2.11,9.65,-0.15,-0.03,-0.02,27.66
6909627,0.99,0.11,0.07,-0.01,0.02,-1.37,2.11,9.65,-0.15,-0.03,-0.02,27.68
6919242,0.99,0.11,0.07,-0.01,0.02,-1.36,2.12,9.65,-0.15,-0.03,-0.02,27.68
6928857,0.99,0.11,0.07,-0.01,-0.11,-1.36,2.12,9.66,-0.08,-0.03,-0.02,27.65
6938472,0.99,0.11,0.07,-0.01,-0.08,-1.36,2.10,9.65,-0.08,-0.03,0.05,27.65
6948087,0.99,0.11,0.07,-0.01,-0.08,-1.35,2.12,9.65,-0.15,-0.03,-0.02,27.64
6957702,0.99,0.11,0.07,-0.01,-0.08,-1.38,2.11,9.66,-0.15,-0.03,-0.02,27.64
6967317,0.99,0.11,0.07,-0.01,-0.08,-1.35,2.13,9.65,-0.08,-0.03,-0.02,27.66
6976932,0.99,0.11,0.07,-0.01,-0.08,-1.35,2.12,9.66,-0.08,-0.03,-0.02,27.66
6986547,0.99,0.11,0.07,-0.01,-0.08,-1.38,2.12,9.66,-0.15,-0.03,-0.02,27.65
6996162,0.99,0.11,0.07,-0.01,-0.10,-1.36,2.11,9.66,-0.15,-0.03,-0.02,27.65
7005777,0.99,0.11,0.07,-0.01,-0.10,-1.37,2.12,9.65,-0.08,-0.03,-0.02,27.69
7015392,0.99,0.11,0.07,-0.01,-0.10,-1.37,2.13,9.67,-0.08,-0.03,-0.02,27.69
7025007,0.99,0.11,0.07,-0.01,-0.10,-1.36,2.11,9.65,-0.15,-0.03,-0.02,27.64
7034622,0.99,0.11,0.07,-0.01,-0.10,-1.36,2.11,9.64,-0.15,-0.10,-0.02,27.64
7044237,0.99,0.11,0.07,-0.01,-0.10,-1.35,2.12,9.65,-0.08,-0.03,-0.02,27.67
7053852,0.99,0.11,0.07,-0.01,-0.10,-1.36,2.11,9.66,-0.15,-0.03,-0.02,27.67
7063467,0.99,0.11,0.07,-0.01,-0.01,-1.38,2.12,9.65,-0.08,-0.03,-0.02,27.67
7073082,0.99,0.11,0.07,-0.01,-0.01,-1.36,2.12,9.65,-0.08,0.04,-0.02,27.67
7082697,0.99,0.11,0.07,-0.01,-0.01,-1.38,2.12,9.66,-0.08,-0.03,-0.02,27.62
7092312,0.99,0.11,0.07,-0.01,-0.01,-1.35,2.12,9.65,-0.15,-0.03,-0.02,27.62
7101927,0.99,0.11,0.07,-0.01,-0.01,-1.36,2.12,9.65,-0.15,-0.03,-0.02,27.61
7111542,0.99,0.11,0.07,-0.01,-0.01,-1.37,2.12,9.65,-0.08,-0.03,-0.02,27.61
7121157,0.99,0.11,0.07,-0.01,-0.01,-1.38,2.12,9.64,-0.15,-0.03,-0.02,27.66
7130772,0.99,0.11,0.07,-0.01,-0.15,-1.36,2.12,9.66,-0.08,-0.03,-0.02,27.66
7140387,0.99,0.11,0.07,-0.01,-0.15,-1.35,2.12,9.65,-0.15,-0.03,-0.02,27.66
7150002,0.99,0.11,0.07,-0.01,-0.15,-1.37,2.13,9.65,-0.15,-0.03,-0.02,27.66
7159617,0.99,0.11,0.07,-0.01,-0.15,-1.38,2.12,9.65,-0.15,-0.03,-0.02,27.66
7169232,0.99,0.11,0.07,-0.01,-0.15,-1.35,2.12,9.65,-0.15,-0.03,-0.02,27.66
7178847,0.99,0.11,0.07,-0.01,-0.15,-1.36,2.12,9.65,-0.15,-0.03,-0.02,27.62
7188462,0.99,0.11,0.07,-0.01,-0.15,-1.37,2.11,9.65,-0.15,-0.03,-0.02,27.62
7198077,0.99,0.11,0.07,-0.01,-0.14,-1.36,2.12,9.66,-0.08,-0.03,-0.02,27.66
7207692,0.99,0.11,0.07,-0.01,-0.14,-1.37,2.12,9.64,-0.15,-0.03,-0.02,27.66
7217307,0.99,0.11,0.07,-0.01,-0.14,-1.35,2.12,9.67,-0.15,-0.03,-0.02,27.66
7226922,0.99,0.11,0.07,-0.01,-0.14,-1.37,2.12,9.65,-0.08,-0.03,-0.02,27.61
7236537,0.99,0.11,0.07,-0.01,-0.14,-1.35,2.12,9.65,-0.08,-0.03,-0.02,27.61
7246152,0.99,0.11,0.07,-0.01,-0.14,-1.35,2.12,9.67,-0.15,-0.03,-0.02,27.65
7255767,0.99,0.11,0.07,-0.01,-0.15,-1.36,2.10,9.67,-0.15,-0.03,-0.02,27.65
7265382,0.99,0.11,0.07,-0.01,-0.15,-1.36,2.10,9.66,-0.08,-0.03,-0.09,27.62
7274997,0.99,0.11,0.07,-0.01,-0.15,-1.36,2.13,9.66,-0.15,-0.03,-0.02,27.62
7284612,0.99,0.11,0.07,-0.01,-0.15,-1.36,2.12,9.65,-0.15,-0.03,-0.02,27.64
7294227,0.99,0.11,0.07,-0.01,-0.15,-1.38,2.12,9.64,-0.08,0.04,-0.02,27.64
7303842,0.99,0.11,0.07,-0.01,-0.15,-1.37,2.12,9.64,-0.15,-0.03,-0.02,27.64
7313457,0.99,0.11,0.07,-0.01,-0.15,-1.38,2.13,9.65,-0.15,-0.03,-0.02,27.64
7323072,0.99,0.11,0.07,-0.01,-0.33,-1.37,2.12,9.64,-0.15,-0.03,-0.02,27.64
7332687,0.99,0.11,0.07,-0.01,-0.33,-1.37,2.12,9.65,-0.08,-0.03,-0.09,27.64
7342302,0.99,0.11,0.07,-0.01,-0.33,-1.37,2.11,9.64,-0.15,-0.03,-0.02,27.61
7351917,0.99,0.11,0.07,-0.01,-0.33,-1.35,2.12,9.66,-0.15,-0.03,-0.02,27.61
7361532,0.99,0.11,0.07,-0.01,-0.33,-1.36,2.13,9.65,-0.08,-0.03,-0.02,27.64
7371147,0.99,0.11,0.07,-0.01,-0.33,-1.35,2.12,9.65,-0.15,-0.03,-0.02,27.64
7380762,0.99,0.11,0.07,-0.01,-0.33,-1.38,2.12,9.64,-0.15,-0.03,-0.02,27.65
7390377,0.99,0.11,0.07,-0.01,-0.30,-1.35,2.12,9.66,-0.15,-0.03,-0.02,27.65
7399992,0.99,0.11,0.07,-0.01,-0.30,-1.38,2.12,9.66,-0.08,-0.03,-0.02,27.64
7409607,0.99,0.11,0.07,-0.01,-0.30,-1.37,2.14,9.66,-0.15,-0.03,-0.02,27.64
7419222,0.99,0.11,0.07,-0.01,-0.30,-1.37,2.11,9.66,-0.15,0.04,-0.02,27.66
7428837,0.99,0.11,0.07,-0.01,-0.30,-1.36,2.10,9.66,-0.15,-0.03,-0.02,27.66
7438452,0.99,0.11,0.07,-0.01,-0.30,-1.36,2.14,9.64,-0.08,-0.03,-0.02,27.61
7448067,0.99,0.11,0.07,-0.01,-0.30,-1.37,2.12,9.65,-0.08,-0.03,-0.02,27.61
7457682,0.99,0.11,0.07,-0.01,-0.26,-1.38,2.12,9.65,-0.15,-0.03,-0.02,27.61
7467297,0.99,0.11,0.07,-0.01,-0.26,-1.36,2.12,9.63,-0.15,-0.03,-0.02,27.61
7476912,0.99,0.11,0.07,-0.01,-0.26,-1.37,2.12,9.64,-0.15,-0.03,-0.02,27.68
7486527,0.99,0.11,0.07,-0.01,-0.26,-1.37,2.12,9.66,-0.15,-0.03,-0.02,27.68
7496142,0.99,0.11,0.07,-0.01,-0.26,-1.37,2.12,9.66,-0.08,-0.03,-0.02,27.65
7505757,0.99,0.11,0.07,-0.01,-0.26,-1.36,2.11,9.65,-0.08,-0.03,-0.02,27.65
7515372,0.99,0.11,0.07,-0.01,-0.26,-1.37,2.12,9.64,-0.08,-0.03,-0.02,27.67
7524987,0.99,0.11,0.07,-0.01,-0.03,-1.35,2.11,9.66,-0.08,-0.03,-0.02,27.67
7534602,0.99,0.11,0.07,-0.01,-0.03,-1.36,2.12,9.66,-0.15,-0.03,-0.02,27.66
7544217,0.99,0.11,0.07,-0.01,-0.03,-1.36,2.11,9.65,-0.15,-0.03,-0.02,27.66
7553832,0.99,0.11,0.07,-0.01,-0.03,-1.38,2.11,9.64,-0.08,-0.03,-0.02,27.66
7563447,0.99,0.11,0.07,-0.01,-0.03,-1.35,2.12,9.66,-0.15,-0.03,-0.02,27.66
7573062,0.99,0.11,0.07,-0.01,-0.03,-1.36,2.11,9.64,-0.15,-0.03,-0.02,27.64
7582677,0.99,0.11,0.07,-0.01,-0.08,-1.37,2.12,9.65,-0.08,-0.03,-0.02,27.64
7592292,0.99,0.11,0.07,-0.01,-0.08,-1.36,2.13,9.65,-0.08,-0.03,-0.02,27.64
7601907,0.99,0.11,0.07,-0.01,-0.08,-1.35,2.11,9.64,-0.15,-0.03,-0.02,27.64
7611522,0.99,0.11,0.07,-0.01,-0.08,-1.38,2.11,9.64,-0.15,-0.03,-0.02,27.64
7621137,0.99,0.11,0.07,-0.01,-0.08,-1.36,2.12,9.65,-0.15,-0.03,-0.02,27.66
7630752,0.99,0.11,0.07,-0.01,-0.08,-1.36,2.10,9.65,-0.08,-0.03,-0.02,27.66
7640367,0.99,0.11,0.07,-0.01,-0.08,-1.37,2.10,9.65,-0.15,-0.03,-0.02,27.66
7649982,0.99,0.11,0.07,-0.01,-0.02,-1.37,2.10,9.66,-0.15,-0.03,-0.02,27.66
7659597,0.99,0.11,0.07,-0.01,-0.02,-1.36,2.12,9.65,-0.08,-0.03,-0.02,27.65
7669212,0.99,0.11,0.07,-0.01,-0.02,-1.36,2.13,9.65,-0.08,-0.03,-0.02,27.65
7678827,0.99,0.11,0.07,-0.01,-0.02,-1.37,2.13,9.65,-0.08,-0.03,-0.02,27.61
7688442,0.99,0.11,0.07,-0.01,-0.02,-1.36,2.11,9.65,-0.15,-0.03,-0.02,27.61
7698057,0.99,0.11,0.07,-0.01,-0.02,-1.38,2.14,9.58,-0.01,0.04,-0.02,27.61
7707672,0.99,0.11,0.07,-0.01,-0.02,-1.40,2.23,9.78,-0.43,-0.52,-0.72,27.61
7717287,0.99,0.11,0.07,-0.01,-0.15,-1.18,1.95,9.60,-1.83,-0.45,0.89,27.65
7726902,0.99,0.11,0.07,-0.01,-0.15,-1.36,1.81,9.65,1.18,1.93,2.29,27.65
7736517,0.99,0.11,0.07,-0.01,-0.15,-1.45,2.43,9.64,5.31,1.09,3.06,27.63
7746132,0.99,0.11,0.07,-0.01,-0.15,-1.37,2.35,9.63,-0.29,-0.24,2.43,27.63
7755747,0.99,0.11,0.07,-0.01,-0.15,-1.41,1.86,9.68,-3.09,0.18,0.75,27.66
7765362,0.99,0.11,0.07,-0.01,-0.15,-1.34,2.10,9.68,1.60,-0.03,-0.58,27.66
7774977,0.99,0.11,0.07,-0.01,-0.15,-1.38,2.33,9.57,1.60,0.18,-0.30,27.64
7784592,0.99,0.11,0.07,-0.01,-0.17,-1.31,2.04,9.60,-1.97,-0.17,-0.02,27.64
7794207,0.99,0.11,0.07,-0.01,-0.17,-1.34,1.99,9.70,-0.50,0.39,0.12,27.62
7803822,0.99,0.11,0.07,-0.01,-0.17,-1.53,2.15,9.86,1.18,0.11,0.33,27.62
7813437,0.99,0.11,0.07,-0.01,-0.17,-1.48,2.01,9.92,0.90,-1.78,2.08,27.64
7823052,0.99,0.11,0.07,-0.01,-0.17,-1.98,2.04,10.36,2.93,-3.67,4.60,27.64
7832667,0.99,0.11,0.07,-0.01,-0.17,-2.46,2.57,9.92,5.24,-14.66,2.78,27.66
7842282,0.99,0.11,0.07,-0.01,-0.17,-1.05,2.57,9.54,-1.27,-24.60,-4.15,27.66
7851897,0.99,0.11,0.06,-0.01,-0.04,-0.92,2.23,9.65,-11.00,-18.09,-6.39,27.67
7861512,0.99,0.11,0.06,-0.01,-0.04,-0.53,2.51,9.98,-9.60,-15.71,-5.76,27.67
7871127,0.99,0.11,0.06,-0.01,-0.04,-0.92,2.28,9.74,-12.68,-5.42,3.55,27.65
7880742,0.99,0.10,0.06,-0.01,-0.04,-1.28,1.70,9.24,-16.53,-2.69,4.95,27.65
7890357,0.99,0.10,0.06,-0.01,-0.04,-1.39,1.55,9.10,-10.37,-7.03,4.18,27.64
7899972,0.99,0.10,0.06,-0.01,-0.04,-0.95,2.09,9.01,-4.77,-8.29,0.54,27.64
7909587,0.99,0.10,0.06,-0.01,0.12,-1.23,1.57,9.15,-7.15,-5.91,-2.96,27.67
7919202,0.99,0.10,0.06,-0.01,0.12,-1.02,1.67,9.60,1.60,-4.16,-7.23,27.67
7928817,0.99,0.10,0.06,-0.01,0.12,-0.46,2.08,9.72,6.57,0.11,-8.00,27.66
7938432,0.99,0.10,0.06,-0.01,0.12,-1.15,2.01,9.59,4.47,6.41,-1.00,27.66
7948047,0.99,0.10,0.06,-0.01,0.12,-1.23,2.01,9.62,4.75,5.85,3.97,27.67
7957662,0.99,0.10,0.06,-0.01,0.12,-1.36,2.08,9.62,6.22,5.15,3.06,27.67
7967277,0.99,0.10,0.06,-0.01,0.12,-1.34,2.16,9.59,7.27,4.31,0.33,27.67
7976892,0.99,0.11,0.06,-0.01,-0.07,-1.10,2.40,9.78,5.03,2.84,-1.14,27.67
7986507,0.99,0.11,0.06,-0.01,-0.07,-1.52,2.08,9.86,-8.48,3.54,-0.51,27.63
7996122,0.99,0.10,0.06,-0.01,-0.07,-1.52,2.08,9.86,-8.48,3.54,-0.51,27.63
8005737,0.99,0.10,0.06,-0.01,-0.07,-1.38,1.93,9.72,-8.48,3.54,-0.51,27.63
8015352,0.99,0.10,0.07,-0.01,-0.07,-1.38,1.85,9.76,-8.06,0.39,-0.79,27.68
8024967,0.99,0.10,0.06,-0.01,-0.07,-1.16,1.85,9.73,-5.75,-0.45,-1.14,27.68
8034582,0.99,0.10,0.06,-0.01,-0.07,-1.23,1.78,9.73,-1.62,0.18,-0.44,27.64
8044197,0.99,0.10,0.06,-0.01,-0.14,-1.20,1.91,9.63,2.93,0.81,-0.02,27.64
8053812,0.99,0.10,0.06,-0.01,-0.14,-1.24,1.99,9.82,5.59,1.37,0.19,27.66
8063427,0.99,0.10,0.06,-0.01,-0.14,-1.29,2.24,9.68,6.99,1.72,0.33,27.66
8073042,0.99,0.10,0.06,-0.01,-0.14,-1.34,2.34,9.71,3.49,1.37,0.47,27.66
8082657,0.99,0.10,0.06,-0.01,-0.14,-1.35,2.19,9.75,-0.78,0.25,0.61,27.66
8092272,0.99,0.10,0.06,-0.01,-0.14,-1.30,2.20,9.61,-2.60,-1.71,-0.44,27.62
8101887,0.99,0.10,0.06,-0.01,-0.14,-1.24,2.08,9.71,-5.12,-2.27,-0.72,27.62
8111502,0.99,0.10,0.06,-0.01,-0.24,-1.19,1.96,9.76,-5.12,-1.92,-0.51,27.63
8121117,0.99,0.10,0.06,-0.01,-0.24,-1.31,1.91,9.65,-3.23,-1.64,-0.23,27.63
8130732,0.99,0.10,0.06,-0.01,-0.24,-1.13,1.96,9.70,-0.36,-1.22,-0.16,27.61
8140347,0.99,0.10,0.06,-0.01,-0.24,-1.32,1.91,9.81,1.18,-0.59,0.12,27.61
8149962,0.99,0.10,0.06,-0.01,-0.24,-1.24,2.08,9.67,4.05,-0.66,0.33,27.64
8159577,0.99,0.10,0.06,-0.01,-0.24,-1.23,2.21,9.60,3.28,-1.01,0.40,27.64
8169192,0.99,0.10,0.06,-0.01,-0.24,-1.18,2.16,9.55,0.13,-1.08,0.47,27.64
8178807,0.99,0.10,0.06,-0.01,0.07,-1.13,2.09,9.45,-2.32,-0.73,0.19,27.64
8188422,0.99,0.10,0.06,-0.01,0.07,-1.17,1.97,9.51,-3.58,0.11,-0.37,27.64
8198037,0.99,0.10,0.06,-0.01,0.07,-1.17,1.89,9.68,-2.18,0.67,-0.72,27.64
8207652,0.99,0.10,0.06,-0.01,0.07,-1.22,1.91,9.82,0.83,1.79,-0.72,27.61
8217267,0.99,0.10,0.06,-0.01,0.07,-1.31,2.08,9.93,3.14,2.98,-1.35,27.61
8226882,0.99,0.10,0.06,-0.01,0.07,-1.24,2.32,9.42,4.54,2.56,-0.65,27.66
8236497,0.99,0.10,0.06,-0.01,-0.00,-1.24,2.11,9.52,-1.76,1.58,1.31,27.66
8246112,0.99,0.10,0.06,-0.01,-0.00,-1.23,1.82,9.74,-1.97,1.58,0.05,27.62
8255727,0.99,0.10,0.06,-0.01,-0.00,-1.24,2.06,9.83,1.81,1.93,-1.07,27.62
8265342,0.99,0.10,0.06,-0.01,-0.00,-1.42,2.15,9.85,1.60,2.42,-1.42,27.63
8274957,0.99,0.11,0.06,-0.01,-0.00,-1.23,2.48,9.54,1.32,0.74,-0.93,27.63
8284572,0.99,0.10,0.06,-0.01,-0.00,-1.33,1.92,9.70,-7.71,0.46,1.38,27.63
8294187,0.99,0.10,0.06,-0.01,-0.00,-1.25,1.69,9.72,-4.70,0.11,-0.44,27.63
8303802,0.99,0.10,0.06,-0.01,-0.15,-1.08,2.11,9.43,2.58,0.53,-1.00,27.66
8313417,0.99,0.10,0.06,-0.01,-0.15,-1.36,1.83,9.78,0.90,1.93,0.40,27.66
8323032,0.99,0.10,0.06,-0.01,-0.15,-1.30,2.12,9.64,4.61,1.58,-0.16,27.66
8332647,0.99,0.10,0.06,-0.01,-0.15,-1.34,2.32,9.85,3.42,0.60,-0.79,27.66
8342262,0.99,0.11,0.06,-0.01,-0.15,-1.27,2.32,9.63,0.06,0.18,0.61,27.64
8351877,0.99,0.10,0.06,-0.01,-0.15,-1.30,2.02,9.62,-4.49,-0.59,0.89,27.64
8361492,0.99,0.10,0.06,-0.01,-0.15,-1.25,1.95,9.82,-4.00,-0.87,-1.07,27.65
8371107,0.99,0.10,0.06,-0.01,-0.18,-1.15,2.17,9.60,-2.18,-0.52,-1.70,27.65
8380722,0.99,0.10,0.06,-0.01,-0.18,-1.22,1.92,9.56,-2.18,0.53,0.61,27.65
8390337,0.99,0.10,0.06,-0.01,-0.18,-0.73,1.77,9.71,-3.93,0.53,0.05,27.62
8399952,0.99,0.10,0.06,-0.01,-0.18,-0.43,2.11,9.57,-2.18,1.23,0.05,27.62
8409567,0.99,0.10,0.06,-0.01,-0.18,-0.43,2.11,10.06,0.76,8.93,1.24,27.63
8419182,0.99,0.10,0.06,-0.01,-0.18,-0.77,2.66,10.06,-2.74,17.61,-1.77,27.63
8428797,0.99,0.10,0.06,-0.01,-0.18,-0.77,3.72,10.09,-16.04,24.05,-7.93,27.66
8438412,0.99,0.10,0.07,-0.01,-0.11,-2.02,2.87,10.13,-42.22,28.81,-2.05,27.66
8448027,0.99,0.10,0.07,-0.01,-0.11,-2.69,2.81,9.56,-50.27,9.21,4.60,27.66
8457642,0.99,0.09,0.07,-0.01,-0.11,-1.67,2.00,9.00,-63.64,-8.01,15.66,27.66
8467257,0.99,0.08,0.07,-0.01,-0.11,-0.88,0.99,9.74,-73.51,-8.22,28.19,27.66
8476872,0.99,0.08,0.07,-0.00,-0.11,-1.69,-0.32,9.11,-57.55,-4.44,32.60,27.66
8486487,0.99,0.08,0.07,-0.00,-0.11,-1.17,-1.12,9.44,-23.11,-2.41,28.82,27.66
8496102,0.99,0.08,0.07,0.00,-0.11,-0.89,-1.18,9.06,29.67,4.52,21.89,27.66
8505717,0.99,0.08,0.07,0.00,-0.29,-1.95,-0.93,8.51,75.24,16.42,13.70,27.65
8515332,0.99,0.09,0.07,0.00,-0.29,-1.04,0.67,9.51,146.92,34.76,-0.72,27.67
8524947,0.99,0.11,0.07,0.00,-0.29,-1.04,0.67,9.51,146.92,34.76,-0.72,27.67
8534562,0.99,0.12,0.08,-0.00,-0.29,-2.23,7.67,13.78,171.70,25.94,-24.52,27.67
8544177,0.99,0.13,0.08,-0.01,-0.29,-2.21,10.71,8.35,89.59,-6.54,-29.28,27.67
8553792,0.99,0.12,0.07,-0.00,-0.29,-2.68,5.65,9.30,-107.11,-9.34,24.41,27.67
8563407,0.99,0.11,0.07,0.00,-0.17,-1.13,-1.01,10.53,-134.97,-2.41,23.50,27.64
8573022,0.99,0.10,0.07,0.00,-0.17,-0.51,-0.24,9.06,-47.19,-14.38,8.59,27.64
8582637,0.99,0.10,0.07,0.00,-0.17,-1.63,0.34,9.27,-3.79,-4.65,3.97,27.64
8592252,0.99,0.10,0.07,-0.00,-0.17,-1.91,0.72,11.20,32.68,9.35,-15.35,27.64
8601867,0.99,0.11,0.07,-0.00,-0.17,-1.13,4.10,9.39,60.75,3.33,-28.37,27.62
8611482,0.99,0.11,0.07,-0.00,-0.17,-0.87,5.24,7.22,19.59,-4.58,-6.95,27.62
8621097,0.99,0.11,0.07,-0.00,-0.17,-2.31,1.37,11.11,-66.30,1.58,23.78,27.66
8630712,0.99,0.10,0.07,-0.00,-0.22,-1.28,0.36,9.60,-25.84,-4.02,6.14,27.66
8640327,0.99,0.10,0.07,-0.00,-0.22,-1.04,1.05,9.48,7.55,-3.67,3.83,27.61
8649942,0.99,0.11,0.07,-0.00,-0.22,-1.74,1.88,9.06,27.15,0.18,-2.54,27.61
8659557,0.99,0.11,0.07,-0.00,-0.22,-0.99,3.93,9.49,26.52,4.66,-14.09,27.64
8669172,0.99,0.11,0.07,-0.00,-0.22,-1.40,3.23,9.52,-9.46,5.57,-5.69,27.64
8678787,0.99,0.11,0.07,-0.00,-0.22,-0.91,2.07,9.73,-27.03,7.74,1.52,27.62
8688402,0.99,0.10,0.07,-0.00,-0.22,-1.22,2.16,9.60,-22.83,9.49,1.38,27.62
8698017,0.99,0.10,0.07,-0.00,-0.20,-1.75,1.46,10.16,-22.55,12.64,3.69,27.69
8707632,0.99,0.10,0.08,-0.00,-0.20,-1.81,1.92,9.69,-5.19,9.84,-2.82,27.69
8717247,0.99,0.10,0.08,-0.00,-0.20,-2.48,1.65,9.18,1.04,3.68,0.47,27.70
8726862,0.99,0.10,0.08,-0.00,-0.20,-2.25,2.74,8.99,7.20,-11.09,-7.23,27.70
8736477,0.99,0.10,0.08,-0.01,-0.20,-2.19,3.63,8.05,-18.63,-16.69,-41.04,27.62
8746092,0.99,0.10,0.08,-0.01,-0.20,-3.72,2.86,9.79,-72.60,-13.47,-47.69,27.62
8755707,0.99,0.09,0.07,-0.01,-0.20,-1.05,1.98,11.20,-71.62,-28.17,-37.68,27.71
8765322,0.99,0.08,0.07,-0.01,-0.41,-0.42,1.82,9.83,-71.62,-41.05,-8.56,27.71
8774937,0.99,0.08,0.07,-0.01,-0.41,0.24,1.59,9.69,-61.75,-41.05,21.05,27.71
8784552,1.00,0.07,0.06,-0.01,-0.41,0.27,0.80,9.25,-65.32,-38.88,21.05,27.68
8794167,1.00,0.07,0.06,-0.01,-0.41,0.27,0.80,9.48,-62.66,-13.40,22.31,27.68
8803782,1.00,0.06,0.06,-0.01,-0.41,-1.24,-0.42,9.48,-50.06,5.22,12.58,27.64
8813397,1.00,0.06,0.06,-0.01,-0.41,-1.36,0.28,9.62,-13.17,13.48,-6.88,27.64
8823012,1.00,0.06,0.06,-0.01,-0.41,-1.56,0.54,9.62,9.23,19.22,-14.72,27.64
8832627,1.00,0.06,0.06,-0.01,-0.24,-1.00,0.50,9.84,25.26,16.63,-7.44,27.64
8842242,1.00,0.06,0.07,-0.01,-0.24,-1.55,2.43,9.30,38.28,15.02,4.18,27.65
8851857,1.00,0.07,0.07,-0.01,-0.24,-2.66,5.39,8.33,0.69,20.90,5.58,27.65
8861472,1.00,0.06,0.07,-0.01,-0.24,-1.77,1.92,10.30,-38.30,-6.19,-1.49,27.67
8871087,1.00,0.07,0.07,-0.01,-0.24,-1.50,4.00,9.19,42.90,-15.43,-5.41,27.67
8880702,1.00,0.07,0.06,-0.01,-0.24,-1.10,1.03,10.93,22.46,-21.52,32.95,27.65
8890317,1.00,0.07,0.06,-0.00,-0.21,-0.25,1.62,9.42,47.59,-18.79,38.69,27.65
8899932,1.00,0.08,0.06,0.00,-0.21,-1.97,0.67,9.26,53.33,-7.45,33.23,27.66
8909547,0.99,0.09,0.06,0.00,-0.21,-0.85,1.77,9.37,78.67,-0.10,27.56,27.66
8919162,0.99,0.09,0.06,0.01,-0.21,-1.42,-0.67,11.45,74.75,15.51,55.77,27.65
8928777,0.99,0.09,0.06,0.01,-0.21,-1.07,1.78,9.91,47.73,5.50,68.72,27.65
8938392,0.99,0.10,0.06,0.02,-0.21,-1.30,-0.14,10.16,29.04,17.75,40.51,27.68
8948007,0.99,0.10,0.06,0.02,-0.21,-2.27,2.46,9.38,44.44,11.31,-1.42,27.68
8957622,0.99,0.10,0.06,0.01,-0.17,-1.67,2.73,9.77,32.26,1.51,-5.34,27.67
8967237,0.99,0.11,0.06,0.01,-0.17,-1.92,1.85,9.95,25.68,-15.29,-7.58,27.67
8976852,0.99,0.11,0.06,0.01,-0.17,-1.53,2.98,9.80,38.77,-28.87,-21.30,27.69
8986467,0.99,0.11,0.06,0.01,-0.17,-1.19,3.45,9.09,25.82,-28.66,-21.02,27.69
8996082,0.99,0.11,0.06,0.01,-0.17,-0.92,3.96,8.81,-8.41,-19.14,-17.10,27.63
9005697,0.99,0.11,0.06,0.01,-0.17,-0.34,1.22,10.89,-59.09,35.39,-25.43,27.66
9015312,0.99,0.10,0.06,0.00,0.14,-0.34,1.22,10.89,-59.09,35.39,-25.43,27.66
9024927,0.99,0.10,0.06,0.00,0.11,-1.18,3.35,9.74,-47.89,14.04,-15.07,27.66
9034542,0.99,0.09,0.06,0.00,0.11,-0.78,2.57,9.91,-56.99,9.21,3.83,27.62
9044157,0.99,0.09,0.07,0.01,0.11,-1.27,2.37,9.82,-71.48,16.28,11.39,27.62
9053772,0.99,0.09,0.07,0.01,0.11,-1.75,2.75,9.90,-46.42,2.28,10.76,27.68
9063387,0.99,0.09,0.06,0.01,0.11,-1.19,2.14,10.27,-23.74,-10.39,24.20,27.68
9073002,0.99,0.08,0.06,0.01,0.11,-1.86,1.66,9.07,-40.68,-18.02,42.61,27.62
9082617,0.99,0.08,0.06,0.02,0.11,-1.88,0.54,10.20,-38.02,-5.42,37.43,27.62
9092232,1.00,0.07,0.06,0.02,-0.09,-1.41,0.33,10.10,-53.70,-10.11,20.35,27.66
9101847,1.00,0.07,0.06,0.02,-0.09,-1.60,0.35,9.67,-39.00,2.98,-9.05,27.66
9111462,1.00,0.07,0.06,0.02,-0.09,-2.16,2.28,9.81,-23.46,-0.17,-19.27,27.64
9121077,1.00,0.07,0.06,0.02,-0.09,-1.75,2.20,10.17,-30.32,-12.35,-12.69,27.64
9130692,1.00,0.06,0.06,0.01,-0.09,-1.11,1.61,9.91,-39.35,-21.66,-6.11,27.68
9140307,1.00,0.06,0.06,0.01,-0.09,-1.22,2.44,9.57,-50.27,-28.52,-3.66,27.68
9149922,1.00,0.05,0.06,0.02,-0.09,-1.04,1.85,9.62,-77.99,-22.15,2.57,27.68
9159537,1.00,0.05,0.05,0.02,-0.10,-0.67,1.38,10.05,-77.99,-22.15,7.96,27.62
9169152,1.00,0.04,0.05,0.02,-0.10,-0.61,0.34,9.44,-90.52,-20.89,7.96,27.62
9178767,1.00,0.03,0.05,0.02,-0.10,-0.61,0.56,8.83,-92.27,-11.09,13.49,27.68
9188382,1.00,0.02,0.05,0.02,-0.10,-1.47,0.56,10.70,-80.02,21.32,-1.56,27.68
9197997,1.00,0.02,0.05,0.02,-0.10,-1.19,0.36,10.70,-77.08,12.36,0.61,27.66
9207612,1.00,0.01,0.05,0.02,-0.10,-0.76,-2.02,9.37,-61.96,-6.75,13.00,27.66
9217227,1.00,0.01,0.05,0.02,-0.17,-1.68,-2.34,10.08,-22.69,-1.43,-8.35,27.64
9226842,1.00,0.01,0.05,0.02,-0.17,-1.08,-0.54,9.54,33.73,6.41,-27.18,27.64
9236457,1.00,0.01,0.05,0.01,-0.17,-1.51,1.22,10.00,45.70,10.47,-35.58,27.66
9246072,1.00,0.02,0.06,0.01,-0.17,-1.43,1.47,10.39,31.00,15.16,-31.66,27.66
9255687,1.00,0.02,0.06,0.01,-0.17,-1.94,0.86,9.36,2.09,8.16,-22.00,27.66
9265302,1.00,0.02,0.06,0.01,-0.17,-1.84,1.60,10.25,-7.71,-3.32,-19.20,27.66
9274917,1.00,0.02,0.06,0.01,-0.17,-1.20,1.05,9.94,-14.36,-8.64,-10.31,27.65
9284532,1.00,0.02,0.06,0.01,-0.14,-1.29,1.46,9.73,-16.60,-7.80,-8.49,27.65
9294147,1.00,0.02,0.06,0.01,-0.14,-1.28,1.22,9.66,-26.96,-10.95,-3.87,27.67
9303762,1.00,0.02,0.05,0.01,-0.14,-0.59,1.15,10.09,-25.42,-16.55,-5.48,27.67
9313377,1.00,0.01,0.05,0.01,-0.14,0.15,0.14,9.71,-23.60,-15.85,-7.37,27.67
9322992,1.00,0.01,0.05,0.00,-0.14,-0.89,-0.33,10.07,-16.04,-16.41,-19.62,27.67
9332607,1.00,0.01,0.05,0.00,-0.14,-0.79,-0.15,9.78,-5.82,-23.62,-15.49,27.63
9342222,1.00,0.01,0.05,0.00,-0.14,-1.23,0.00,9.88,-1.06,-26.21,-7.79,27.63
9351837,1.00,0.01,0.04,0.00,-0.25,-0.80,-0.03,10.29,4.33,-26.21,-4.36,27.67
9361452,1.00,0.01,0.04,0.00,-0.25,-0.94,-0.03,9.65,19.52,-19.91,-12.48,27.67
9371067,1.00,0.01,0.04,-0.00,-0.25,-0.69,0.15,9.82,31.98,-7.80,-25.92,27.66
9380682,1.00,0.01,0.04,-0.00,-0.25,-0.70,-0.06,9.63,39.12,5.08,-34.53,27.66
9390297,1.00,0.02,0.04,-0.01,-0.25,-0.58,-0.68,9.35,54.17,11.66,-31.59,27.63
9399912,1.00,0.03,0.04,-0.01,-0.25,-0.40,0.47,8.44,101.00,19.22,-29.07,27.63
9409527,1.00,0.04,0.04,-0.01,-0.25,-0.46,-0.27,9.51,146.43,31.82,-8.63,27.67
9419142,1.00,0.05,0.05,-0.01,0.02,-1.00,0.02,9.14,151.05,19.78,11.11,27.67
9428757,1.00,0.06,0.05,-0.01,0.02,-0.13,0.78,9.29,183.39,35.04,2.08,27.66
9438372,1.00,0.08,0.05,-0.01,0.02,-0.31,3.88,10.39,149.02,64.79,13.00,27.66
9447987,0.99,0.09,0.06,-0.01,0.02,-1.32,3.38,10.40,88.89,70.46,43.17,27.68
9457602,0.99,0.09,0.06,-0.00,0.02,-1.38,3.07,10.42,56.97,45.40,74.25,27.68
9467217,0.99,0.10,0.07,0.01,0.02,-2.53,2.89,10.57,56.62,36.37,66.55,27.70
9476832,0.99,0.10,0.07,0.01,0.02,-2.44,3.52,9.55,58.65,28.81,38.34,27.70
9486447,0.99,0.11,0.07,0.01,-0.11,-1.39,4.32,9.42,26.31,32.17,27.28,27.64
9496062,0.99,0.11,0.07,0.01,-0.11,-1.49,2.88,9.64,-14.08,21.88,22.80,27.64
9505677,0.99,0.11,0.07,0.01,-0.11,-1.90,2.56,9.71,-21.64,16.35,12.16,27.71
9515292,0.99,0.11,0.08,0.01,-0.11,-1.65,2.75,9.46,-18.91,11.03,-1.70,27.71
9524907,0.99,0.10,0.08,0.01,-0.11,-2.05,3.20,9.50,-28.15,11.94,-10.66,27.68
9534522,0.99,0.10,0.08,0.01,-0.11,-1.67,3.29,9.74,-48.10,2.28,-8.49,27.68
9544137,0.99,0.10,0.08,0.01,-0.14,-2.10,1.50,9.00,-48.10,-12.14,-2.05,27.68
9553752,0.99,0.09,0.08,0.01,-0.14,-0.04,-4.91,9.42,-70.57,-12.14,-2.05,27.67
9563367,0.99,0.08,0.07,0.01,-0.14,0.78,-3.94,13.15,-70.85,-33.00,11.53,27.67
9572982,0.99,0.08,0.07,0.01,-0.14,0.78,-3.94,6.42,-7.43,-28.24,-7.16,27.62
9582597,0.99,0.09,0.07,0.01,-0.14,-2.17,-0.95,6.42,71.60,-11.86,-82.69,27.62
9592212,0.99,0.08,0.07,-0.00,-0.14,-3.80,8.34,8.10,-13.87,8.93,-130.08,27.68
9601827,0.99,0.08,0.07,-0.01,-0.14,-2.46,3.00,12.09,-109.70,-21.38,-121.68,27.68
9611442,0.99,0.07,0.07,-0.02,-0.07,-1.77,4.83,7.89,-38.79,-33.49,-80.66,27.64
9621057,1.00,0.07,0.06,-0.02,-0.07,-1.18,4.38,10.72,-57.20,-63.73,-31.94,27.64
9630672,1.00,0.06,0.06,-0.02,-0.07,0.38,1.67,10.69,-53.49,-38.60,-16.61,27.68
9640287,1.00,0.06,0.06,-0.02,-0.07,-1.77,2.41,9.63,-82.05,-53.09,-2.61,27.68
9649902,1.00,0.05,0.05,-0.02,-0.07,-2.06,1.88,10.49,-80.23,-48.82,27.98,27.68
9659517,1.00,0.05,0.05,-0.02,-0.07,-1.90,2.24,10.19,-62.80,-28.17,43.66,27.68
9669132,1.00,0.04,0.05,-0.02,-0.07,-2.09,2.07,10.54,-72.11,-17.04,32.60,27.69
9678747,1.00,0.04,0.05,-0.01,0.05,-0.68,2.03,10.74,-90.45,-18.09,13.14,27.69
9688362,1.00,0.03,0.05,-0.01,0.05,-0.61,1.68,11.27,-122.65,-24.67,-3.17,27.69
9697977,1.00,0.01,0.04,-0.02,0.05,-1.75,0.91,9.62,-147.78,-40.77,-41.46,27.69
9707592,1.00,-0.00,0.04,-0.02,0.05,-1.46,0.22,9.63,-171.72,-30.55,-59.94,27.68
9717207,1.00,-0.01,0.04,-0.02,0.05,-0.71,-2.60,10.43,-138.89,-17.04,-23.96,27.68
9726822,1.00,-0.02,0.04,-0.02,0.05,-0.93,-1.59,9.61,-86.95,-11.93,-8.84,27.70
9736437,1.00,-0.03,0.04,-0.02,0.05,-0.78,-0.84,9.61,-72.60,-1.85,6.56,27.70
9746052,1.00,-0.04,0.04,-0.02,0.01,-1.07,-1.43,10.02,-82.40,10.05,6.14,27.66
9755667,1.00,-0.04,0.04,-0.02,0.01,-0.91,-1.42,10.63,-84.15,2.77,-1.00,27.66
9765282,1.00,-0.05,0.04,-0.02,0.01,-0.87,-0.92,10.28,-83.38,-3.53,-6.18,27.67
9774897,1.00,-0.06,0.04,-0.02,0.01,-0.30,-1.05,10.81,-82.68,3.05,-12.62,27.67
9784512,1.00,-0.06,0.04,-0.02,0.01,-0.45,-0.99,10.72,-67.42,23.70,-26.83,27.65
9794127,1.00,-0.07,0.05,-0.03,0.01,-0.51,-0.08,10.18,-57.83,35.95,-40.34,27.65
9803742,1.00,-0.07,0.05,-0.03,0.01,-0.12,-0.04,9.99,-72.60,48.62,-36.56,27.63
9813357,0.99,-0.08,0.06,-0.03,0.22,-1.17,-0.96,10.01,-88.21,70.04,-23.47,27.63
9822972,0.99,-0.08,0.06,-0.03,0.22,-1.16,-1.24,10.47,-82.40,62.13,-23.96,27.63
9832587,0.99,-0.09,0.07,-0.04,0.22,-2.48,-0.88,11.08,-65.81,47.78,-20.53,27.63
9842202,0.99,-0.09,0.07,-0.04,0.22,-2.01,0.45,10.34,-59.09,3.75,-18.01,27.67
9851817,0.99,-0.10,0.06,-0.04,0.22,-2.12,0.85,8.88,-126.01,-56.31,7.54,27.67
9861432,0.99,-0.12,0.06,-0.03,0.22,-1.90,-2.01,8.28,-230.38,-83.47,34.21,27.67
9871047,0.99,-0.14,0.05,-0.03,0.09,-0.87,-5.05,9.49,-239.62,-42.17,-1.42,27.67
9880662,0.99,-0.16,0.06,-0.03,0.09,-0.89,-6.46,9.85,-193.35,6.48,-36.98,27.69
9890277,0.98,-0.17,0.06,-0.04,0.09,-0.25,-4.15,9.04,-124.61,15.58,-61.83,27.69
9899892,0.98,-0.18,0.06,-0.04,0.09,-0.72,-2.37,9.60,-108.23,22.02,-53.01,27.69
9909507,0.98,-0.19,0.06,-0.04,0.09,-0.40,-2.42,9.75,-126.71,3.75,-28.51,27.69
9919122,0.98,-0.20,0.05,-0.04,0.09,-0.78,-2.82,9.66,-145.33,-24.04,0.12,27.63
9928737,0.97,-0.21,0.05,-0.04,0.09,0.60,-5.73,5.04,-145.33,-66.60,36.03,27.63
9938352,0.97,-0.23,0.05,-0.03,-0.03,-3.37,-6.10,6.75,-149.53,-66.60,55.49,27.63
9947967,0.97,-0.23,0.05,-0.03,-0.03,-1.00,-4.35,11.79,-72.11,-12.70,55.49,27.69
9957582,0.97,-0.23,0.05,-0.02,-0.03,-1.00,-4.35,8.13,-16.67,-2.97,37.36,27.69
9967197,0.97,-0.23,0.05,-0.02,-0.03,-0.28,-2.53,8.13,3.07,-13.89,-3.80,27.69
9976812,0.97,-0.24,0.05,-0.02,-0.03,-0.91,-3.12,8.34,-50.97,11.10,0.96,27.69
9986427,0.97,-0.24,0.05,-0.02,-0.03,-1.55,-3.62,10.23,-71.83,12.36,5.65,27.67
9996042,0.97,-0.25,0.05,-0.02,-0.03,-1.52,-5.03,9.04,-61.33,4.59,11.04,27.67
10005657,0.97,-0.25,0.05,-0.02,0.01,-1.46,-5.22,8.42,-38.93,7.95,5.37,27.67
10015272,0.97,-0.25,0.06,-0.02,0.01,-2.10,-5.60,8.87,-64.90,48.76,-26.20,27.67
10024887,0.96,-0.26,0.05,-0.02,0.01,0.32,-7.54,8.17,-115.23,-27.96,-3.94,27.67
10034502,0.96,-0.27,0.05,-0.02,0.01,0.32,-5.59,11.78,-115.23,-27.96,-3.94,27.67
10044117,0.96,-0.28,0.05,-0.02,0.01,-1.09,-5.59,11.78,-45.93,-18.02,-21.09,27.67
10053732,0.96,-0.28,0.05,-0.02,0.01,-1.09,-5.59,11.78,-45.93,-18.02,-21.09,27.67
10063347,0.96,-0.28,0.04,-0.02,0.01,-0.28,-3.57,8.13,-19.40,-52.81,-40.27,27.66
10072962,0.96,-0.28,0.04,-0.02,-0.23,-0.59,-0.83,7.23,-6.59,-47.63,-10.66,27.66
10082577,0.96,-0.29,0.04,-0.02,-0.23,-1.60,-2.79,10.07,-86.39,23.14,23.43,27.65
10092192,0.96,-0.29,0.05,-0.02,-0.23,-2.81,-6.36,10.62,-74.07,54.29,20.14,27.65
10101807,0.95,-0.30,0.05,-0.03,-0.23,-2.68,-5.23,15.79,-66.93,9.84,-61.13,27.69
10111422,0.95,-0.30,0.04,-0.03,-0.23,0.46,-3.92,6.97,-76.87,-40.21,-112.02,27.69
10121037,0.95,-0.31,0.04,-0.04,-0.23,0.33,-1.61,4.54,-59.02,-26.42,-17.31,27.70
10130652,0.95,-0.31,0.04,-0.03,-0.23,-1.12,-5.64,10.27,-100.53,12.78,66.83,27.70
10140267,0.95,-0.32,0.04,-0.02,0.13,-2.10,-8.02,8.56,-74.35,-31.74,81.81,27.66
10149882,0.95,-0.32,0.04,-0.01,0.13,-2.01,-9.37,7.80,-44.04,-63.10,66.34,27.66
10159497,0.94,-0.33,0.03,-0.01,0.13,-1.16,-8.74,7.76,-8.62,-72.06,25.81,27.68
10169112,0.94,-0.33,0.03,-0.01,0.13,-1.67,-7.49,6.36,3.28,-68.00,-6.74,27.68
10178727,0.94,-0.33,0.02,-0.01,0.13,-0.55,-6.72,6.41,-48.52,-38.18,-22.91,27.69
10188342,0.94,-0.34,0.02,-0.01,0.13,0.33,-6.40,7.31,-77.43,1.65,-38.17,27.69
10197957,0.94,-0.34,0.02,-0.02,0.15,0.92,-7.12,7.93,-75.47,8.23,-43.28,27.68
10207572,0.94,-0.35,0.02,-0.02,0.15,1.61,-6.18,7.36,-50.34,10.05,-48.88,27.68
10217187,0.94,-0.35,0.02,-0.02,0.15,1.79,-5.34,6.83,-43.34,6.13,-34.11,27.69
10226802,0.93,-0.36,0.02,-0.02,0.15,0.94,-6.08,6.58,-50.13,-12.00,-3.17,27.69
10236417,0.93,-0.36,0.01,-0.02,0.15,0.75,-6.61,6.60,-56.15,-30.62,19.93,27.70
10246032,0.93,-0.37,0.01,-0.02,0.15,1.84,-7.53,6.74,-67.56,-33.07,25.81,27.70
10255647,0.93,-0.37,0.01,-0.02,0.15,-0.17,-8.27,7.76,-65.11,-11.86,4.60,27.64
10265262,0.93,-0.38,0.01,-0.02,0.06,-1.18,-5.86,7.61,-50.13,-7.31,-34.39,27.64
10274877,0.92,-0.38,0.01,-0.03,0.06,-1.09,-5.23,7.34,-92.06,-1.15,-58.96,27.68
10284492,0.92,-0.39,0.01,-0.03,0.06,-0.66,-7.03,7.93,-129.72,7.46,-60.57,27.68
10294107,0.92,-0.40,0.01,-0.03,0.06,0.07,-6.49,7.72,-103.33,13.27,-51.96,27.70
10303722,0.91,-0.40,0.01,-0.04,0.06,-0.21,-5.90,7.26,-77.08,17.82,-37.47,27.70
10313337,0.91,-0.41,0.01,-0.04,0.06,-0.27,-6.34,7.03,-77.08,12.01,-24.66,27.70
10322952,0.91,-0.41,0.01,-0.04,0.06,-0.22,-6.84,7.06,-66.37,12.01,-18.36,27.64
10332567,0.91,-0.42,0.01,-0.04,0.09,-0.41,-7.39,6.75,-57.13,2.84,-18.36,27.64
10342182,0.91,-0.42,0.01,-0.04,0.09,-0.41,-7.39,6.42,-41.87,-5.07,-18.22,27.70
10351797,0.91,-0.42,0.01,-0.04,0.09,0.31,-6.86,6.42,-28.01,-7.31,-23.61,27.70
10361412,0.90,-0.42,0.01,-0.05,0.09,0.63,-6.19,6.19,-36.06,7.39,-21.93,27.64
10371027,0.90,-0.43,0.01,-0.05,0.09,0.88,-6.65,6.73,-46.84,21.39,-17.66,27.64
10380642,0.90,-0.43,0.01,-0.05,0.09,0.83,-6.61,7.28,-33.82,30.42,-14.16,27.69
10390257,0.90,-0.43,0.01,-0.05,0.09,0.42,-6.63,7.39,-28.08,23.14,-9.12,27.69
10399872,0.90,-0.43,0.01,-0.05,-0.10,0.14,-7.29,7.37,-35.99,5.08,-3.03,27.67
10409487,0.90,-0.44,0.01,-0.05,-0.10,-0.43,-8.06,7.19,-47.82,-18.65,1.24,27.67
10419102,0.90,-0.44,0.01,-0.05,-0.10,-0.43,-8.45,6.41,-42.50,-44.83,1.10,27.65
10428717,0.90,-0.44,0.01,-0.05,-0.10,-0.59,-8.36,6.09,-24.44,-55.12,4.46,27.65
10438332,0.90,-0.44,0.00,-0.04,-0.10,-0.48,-8.45,5.61,-11.70,-60.72,9.43,27.66
10447947,0.89,-0.44,0.00,-0.04,-0.10,-0.14,-8.81,5.61,-13.38,-57.43,14.47,27.66
10457562,0.89,-0.45,-0.00,-0.04,0.17,0.55,-9.39,4.82,-17.37,-42.73,-3.59,27.68
10467177,0.89,-0.45,-0.01,-0.04,0.17,0.85,-8.84,5.07,-11.63,-18.02,-23.19,27.68
10476792,0.89,-0.45,-0.01,-0.04,0.17,0.41,-8.93,6.26,-16.39,-6.47,-29.35,27.66
10486407,0.89,-0.45,-0.01,-0.04,0.17,0.44,-8.26,5.90,-4.49,-11.23,-33.06,27.66
10496022,0.89,-0.45,-0.01,-0.05,0.17,0.71,-6.97,5.96,-3.23,-15.50,-31.66,27.65
10505637,0.89,-0.45,-0.01,-0.05,0.17,1.04,-7.36,6.25,-20.31,-16.83,-25.01,27.65
10515252,0.89,-0.45,-0.02,-0.05,0.17,1.37,-7.72,5.96,-31.93,-26.77,-22.07,27.69
10524867,0.89,-0.46,-0.02,-0.05,-0.05,1.89,-9.28,5.64,-54.47,-33.91,-19.83,27.69
10534482,0.88,-0.47,-0.02,-0.05,-0.05,1.89,-9.28,5.64,-80.79,-30.90,-20.95,27.70
10544097,0.88,-0.47,-0.03,-0.05,-0.05,2.61,-9.19,5.27,-66.02,-18.37,-27.04,27.70
10553712,0.88,-0.48,-0.03,-0.06,-0.05,1.97,-7.96,4.70,-58.32,11.94,-39.50,27.67
10563327,0.87,-0.48,-0.03,-0.06,-0.05,1.68,-8.19,5.43,-76.87,30.35,-41.95,27.67
10572942,0.87,-0.49,-0.03,-0.07,-0.05,1.12,-7.77,5.71,-72.39,35.88,-45.80,27.70
10582557,0.87,-0.49,-0.03,-0.07,-0.05,-0.08,-7.35,6.07,-61.96,38.61,-44.89,27.70
10592172,0.87,-0.49,-0.02,-0.07,-0.02,0.21,-7.93,5.43,-60.07,28.39,-36.21,27.68
10601787,0.86,-0.50,-0.02,-0.08,-0.02,-0.27,-8.07,6.19,-57.20,20.34,-25.50,27.68
10611402,0.86,-0.50,-0.02,-0.08,-0.02,-0.12,-8.00,5.83,-36.55,6.13,-17.59,27.65
10621017,0.86,-0.50,-0.02,-0.08,-0.02,0.42,-7.93,5.24,-27.87,-9.97,-2.82,27.65
10630632,0.86,-0.50,-0.02,-0.08,-0.02,0.47,-8.59,5.52,-35.50,-17.95,3.55,27.68
10640247,0.86,-0.51,-0.02,-0.07,-0.02,0.46,-8.64,4.66,-34.66,-22.29,-0.86,27.68
10649862,0.86,-0.51,-0.03,-0.08,-0.02,1.88,-9.53,4.58,-66.37,-21.45,-12.62,27.66
10659477,0.85,-0.52,-0.03,-0.08,0.01,1.52,-11.03,4.48,-106.97,-5.77,-41.74,27.66
10669092,0.85,-0.53,-0.03,-0.08,0.01,2.97,-9.36,2.04,-110.05,17.40,-66.52,27.69
10678707,0.84,-0.53,-0.03,-0.09,0.01,2.21,-8.13,4.34,-116.77,20.90,-58.05,27.69
10688322,0.83,-0.54,-0.03,-0.09,0.01,1.53,-9.22,4.74,-128.60,-16.06,-29.35,27.66
10697937,0.83,-0.55,-0.03,-0.09,0.01,1.60,-9.03,3.34,-107.04,-31.60,-16.54,27.66
10707552,0.82,-0.56,-0.03,-0.09,0.01,1.42,-8.56,3.73,-107.04,-31.60,-7.79,27.66
10717167,0.82,-0.56,-0.03,-0.09,0.01,1.05,-8.83,4.52,-89.82,-15.85,-7.79,27.69
10726782,0.82,-0.57,-0.03,-0.09,0.07,1.05,-8.85,4.57,-84.43,-9.06,-3.94,27.69
10736397,0.81,-0.58,-0.04,-0.09,0.07,0.69,-8.85,3.17,-81.49,-23.34,-12.41,27.70
10746012,0.81,-0.58,-0.04,-0.09,0.07,1.18,-9.22,3.17,-77.78,-33.56,-18.85,27.70
10755627,0.80,-0.59,-0.04,-0.09,0.07,1.34,-9.41,2.52,-82.82,-25.79,-11.71,27.69
10765242,0.80,-0.59,-0.04,-0.09,0.07,1.80,-10.03,2.46,-89.40,-15.43,-1.35,27.69
10774857,0.79,-0.60,-0.04,-0.09,0.07,1.61,-10.19,2.47,-87.65,-11.93,-3.24,27.68
10784472,0.79,-0.61,-0.04,-0.09,-0.08,1.75,-10.13,1.72,-84.92,-7.10,-18.01,27.68
10794087,0.78,-0.61,-0.04,-0.09,-0.04,2.44,-11.30,2.64,-111.38,5.57,-8.63,27.70
10803702,0.78,-0.62,-0.04,-0.09,-0.04,2.27,-10.64,4.61,-109.77,-4.93,-17.52,27.70
10813317,0.77,-0.63,-0.04,-0.09,-0.04,2.26,-8.96,2.30,-81.42,-41.82,-15.14,27.71
10822932,0.77,-0.63,-0.05,-0.09,-0.04,1.81,-9.07,1.85,-85.34,-43.43,11.39,27.71
10832547,0.76,-0.64,-0.05,-0.09,-0.04,0.88,-9.08,2.42,-87.93,-46.30,22.94,27.71
10842162,0.76,-0.64,-0.05,-0.08,-0.04,1.74,-8.22,2.24,-96.05,-60.51,22.80,27.71
10851777,0.75,-0.65,-0.05,-0.08,0.03,1.34,-9.79,1.91,-109.91,-56.59,20.21,27.67
10861392,0.75,-0.66,-0.05,-0.07,0.03,1.07,-9.48,1.61,-85.90,-47.98,11.18,27.67
10871007,0.74,-0.66,-0.05,-0.07,0.03,2.11,-9.42,0.64,-77.92,-47.56,9.01,27.70
10880622,0.74,-0.67,-0.05,-0.07,0.03,1.63,-9.42,0.56,-88.21,-39.51,6.70,27.70
10890237,0.73,-0.68,-0.06,-0.07,0.03,2.37,-9.41,0.02,-97.03,-37.76,1.24,27.70
10899852,0.72,-0.68,-0.06,-0.07,0.03,2.26,-10.53,-0.36,-119.01,-28.59,-4.01,27.70
10909467,0.72,-0.69,-0.06,-0.07,0.03,2.14,-11.00,-0.54,-122.72,-22.71,-10.45,27.68
10919082,0.71,-0.70,-0.06,-0.07,-0.16,2.44,-10.54,-1.26,-103.89,-18.79,-20.60,27.68
10928697,0.70,-0.70,-0.06,-0.07,-0.16,2.31,-10.33,-1.35,-91.15,-14.03,-28.51,27.68
10938312,0.70,-0.71,-0.07,-0.07,-0.16,1.91,-9.93,0.01,-78.97,-7.66,-26.83,27.68
10947927,0.70,-0.71,-0.07,-0.07,-0.16,1.39,-9.36,0.36,-65.32,-7.10,-27.18,27.71
10957542,0.69,-0.72,-0.07,-0.07,-0.16,0.94,-8.92,0.94,-62.73,-10.18,-24.73,27.71
10967157,0.69,-0.72,-0.07,-0.07,-0.16,0.66,-8.66,1.20,-59.58,-17.53,-19.97,27.68
10976772,0.69,-0.72,-0.07,-0.07,-0.16,0.94,-8.46,0.15,-56.01,-26.77,-15.63,27.68
10986387,0.68,-0.73,-0.07,-0.07,0.09,1.33,-8.96,-0.86,-61.61,-20.61,-8.35,27.72
10996002,0.68,-0.73,-0.07,-0.07,0.09,1.83,-9.99,-1.32,-76.87,-3.46,-4.29,27.72
11005617,0.67,-0.74,-0.07,-0.07,0.09,2.52,-10.21,-1.31,-84.36,9.98,-12.76,27.75
11015232,0.67,-0.74,-0.07,-0.08,0.09,2.29,-9.44,-0.74,-81.91,15.09,-20.25,27.75
11024847,0.66,-0.74,-0.07,-0.08,0.09,1.82,-9.08,-0.60,-65.11,-4.09,-21.44,27.70
11034462,0.66,-0.75,-0.08,-0.08,0.09,1.79,-9.74,-1.32,-68.96,-23.62,-22.98,27.70
11044077,0.65,-0.75,-0.07,-0.08,0.09,2.13,-10.05,-1.23,-116.35,23.77,-26.48,27.73
11053692,0.65,-0.75,-0.07,-0.08,-0.10,1.89,-7.73,0.38,-59.79,8.72,-15.14,27.73
11063307,0.64,-0.76,-0.08,-0.08,-0.10,1.97,-8.12,-0.70,-57.76,-26.35,-0.44,27.75
11072922,0.64,-0.76,-0.08,-0.08,-0.10,2.36,-8.31,-1.37,-79.18,-32.72,12.58,27.75
11082537,0.63,-0.76,-0.08,-0.08,-0.10,2.17,-9.47,-1.56,-54.19,-22.01,23.29,27.72
11092152,0.63,-0.77,-0.08,-0.08,-0.10,2.14,-8.47,-1.59,-54.19,-16.06,25.04,27.72
11101767,0.63,-0.77,-0.08,-0.07,-0.10,2.61,-8.74,-2.37,-29.34,-16.06,25.04,27.72
11111382,0.63,-0.77,-0.07,-0.07,-0.25,2.55,-9.94,-2.17,-35.64,-8.57,29.17,27.76
11120997,0.62,-0.78,-0.07,-0.07,-0.28,2.55,-9.94,-1.98,-57.97,5.01,22.80,27.76
11130612,0.62,-0.78,-0.07,-0.08,-0.28,2.26,-9.41,-1.98,-70.99,12.43,5.58,27.71
11140227,0.61,-0.78,-0.07,-0.08,-0.28,1.98,-9.03,-1.93,-80.79,20.90,-5.13,27.71
11149842,0.61,-0.79,-0.07,-0.08,-0.28,1.86,-9.20,-1.83,-97.31,20.34,-8.77,27.73
11159457,0.60,-0.79,-0.07,-0.08,-0.28,2.23,-9.62,-1.05,-105.57,13.76,-7.30,27.73
11169072,0.60,-0.80,-0.07,-0.08,-0.28,1.25,-9.32,-1.73,-97.10,-0.87,-8.28,27.77
11178687,0.59,-0.80,-0.07,-0.08,-0.23,1.06,-8.49,-2.12,-86.95,-19.42,-0.86,27.77
11188302,0.58,-0.80,-0.07,-0.08,-0.23,1.19,-8.85,-2.47,-84.43,-23.55,3.27,27.72
11197917,0.58,-0.81,-0.07,-0.08,-0.23,1.07,-9.49,-2.34,-72.67,-19.98,6.21,27.72
11207532,0.58,-0.81,-0.07,-0.08,-0.23,1.35,-9.55,-3.41,-44.04,-16.13,2.64,27.71
11217147,0.57,-0.81,-0.07,-0.08,-0.23,2.34,-10.08,-3.52,-32.77,-15.64,-3.73,27.71
11226762,0.57,-0.81,-0.07,-0.08,-0.23,2.58,-10.12,-3.68,-18.42,-15.43,-7.51,27.75
11236377,0.57,-0.81,-0.07,-0.08,-0.23,2.65,-9.88,-3.91,-7.64,-16.97,-15.49,27.75
11245992,0.57,-0.81,-0.07,-0.08,-0.27,2.14,-9.75,-4.00,-8.62,-13.12,-26.41,27.70
11255607,0.57,-0.82,-0.08,-0.08,-0.27,2.37,-10.07,-4.03,-14.99,-9.13,-32.64,27.70
11265222,0.57,-0.82,-0.08,-0.08,-0.27,2.79,-10.57,-2.73,-23.60,-2.48,-38.80,27.70
11274837,0.57,-0.82,-0.08,-0.08,-0.27,2.28,-10.25,-2.05,-33.82,-5.84,-51.61,27.70
11284452,0.56,-0.82,-0.09,-0.08,-0.27,2.17,-8.56,-2.83,-27.59,-12.63,-63.37,27.80
11294067,0.56,-0.82,-0.09,-0.09,-0.27,2.20,-7.87,-3.14,-35.43,-4.93,-56.23,27.80
11303682,0.56,-0.82,-0.09,-0.09,-0.27,2.18,-7.77,-2.79,-38.86,7.74,-44.82,27.72
11313297,0.56,-0.82,-0.10,-0.09,-0.21,2.32,-7.61,-2.76,-30.25,19.85,-34.60,27.72
11322912,0.55,-0.82,-0.10,-0.10,-0.21,2.34,-7.51,-2.59,-25.28,27.48,-27.11,27.68
11332527,0.55,-0.82,-0.10,-0.10,-0.21,2.82,-7.67,-2.71,-28.99,22.30,-17.87,27.68
11342142,0.55,-0.82,-0.10,-0.10,-0.21,3.00,-8.06,-2.94,-25.77,6.41,-6.88,27.75
11351757,0.55,-0.82,-0.10,-0.10,-0.21,2.88,-8.02,-3.32,-17.79,-14.66,-4.43,27.75
11361372,0.55,-0.82,-0.10,-0.10,-0.21,2.86,-7.95,-3.14,-14.78,-30.97,0.54,27.73
11370987,0.55,-0.82,-0.10,-0.10,-0.21,2.89,-7.95,-3.11,-13.59,-37.76,8.94,27.73
11380602,0.55,-0.82,-0.10,-0.10,-0.29,2.55,-7.85,-3.35,-10.16,-39.51,14.89,27.75
11390217,0.55,-0.83,-0.10,-0.09,-0.29,2.40,-7.81,-3.34,-8.48,-36.29,20.70,27.75
11399832,0.55,-0.83,-0.10,-0.09,-0.29,2.00,-7.94,-3.18,-9.18,-28.24,25.46,27.74
11409447,0.55,-0.83,-0.10,-0.09,-0.29,2.19,-7.99,-3.26,-9.95,-20.82,26.51,27.74
11419062,0.55,-0.83,-0.10,-0.08,-0.29,2.38,-8.04,-3.40,-11.77,-14.73,23.15,27.77
11428677,0.55,-0.83,-0.10,-0.08,-0.29,2.52,-8.18,-3.33,-18.70,-10.60,18.32,27.77
11438292,0.54,-0.83,-0.10,-0.08,-0.19,2.66,-8.30,-3.35,-26.33,-9.55,14.12,27.73
11447907,0.54,-0.83,-0.10,-0.08,-0.22,2.51,-8.33,-3.54,-36.76,-13.61,15.45,27.73
11457522,0.54,-0.83,-0.10,-0.08,-0.22,2.36,-8.25,-4.01,-46.70,-24.53,17.13,27.75
11467137,0.53,-0.84,-0.10,-0.08,-0.22,1.85,-8.93,-4.15,-62.66,-28.17,14.82,27.75
11476752,0.53,-0.84,-0.10,-0.07,-0.22,2.12,-9.72,-4.59,-62.66,-27.89,10.55,27.75
11486367,0.53,-0.84,-0.10,-0.07,-0.22,2.12,-9.27,-4.45,-48.73,-27.89,7.19,27.77
11495982,0.52,-0.84,-0.10,-0.07,-0.22,1.97,-8.72,-4.53,-18.84,-27.89,7.19,27.77
11505597,0.52,-0.84,-0.10,-0.07,-0.41,1.97,-8.72,-4.47,0.62,-22.71,1.80,27.73
11515212,0.52,-0.84,-0.10,-0.07,-0.41,1.82,-8.60,-4.47,1.88,-14.24,-4.85,27.73
11524827,0.52,-0.84,-0.10,-0.06,-0.41,1.90,-8.80,-4.49,-3.65,-12.70,-8.63,27.73
11534442,0.52,-0.84,-0.10,-0.06,-0.41,2.15,-9.23,-4.74,-10.86,-16.27,-13.04,27.73
11544057,0.52,-0.84,-0.10,-0.06,-0.41,2.21,-10.17,-4.43,7.83,-17.18,-31.03,27.75
11553672,0.52,-0.84,-0.11,-0.06,-0.41,2.21,-10.17,-4.43,7.83,-17.18,-31.03,27.75
11563287,0.53,-0.84,-0.11,-0.06,-0.41,2.25,-8.73,-4.24,30.86,-25.02,-44.61,27.71
11572902,0.53,-0.84,-0.11,-0.06,-0.39,2.08,-8.09,-4.77,8.25,-21.87,-48.46,27.71
11582517,0.52,-0.84,-0.12,-0.07,-0.39,2.66,-7.83,-4.49,-31.51,-11.93,-50.42,27.73
11592132,0.52,-0.84,-0.12,-0.07,-0.39,2.14,-6.50,-3.69,-53.42,8.16,-54.69,27.73
11601747,0.51,-0.85,-0.12,-0.07,-0.39,2.32,-6.47,-3.83,-61.26,22.86,-42.93,27.72
11611362,0.51,-0.85,-0.12,-0.08,-0.39,2.56,-7.14,-3.13,-53.14,25.52,-17.80,27.72
11620977,0.51,-0.85,-0.12,-0.08,-0.39,2.75,-7.66,-3.40,-26.89,17.19,-6.18,27.73
11630592,0.51,-0.85,-0.12,-0.08,-0.39,2.77,-7.72,-4.01,-15.27,5.99,-6.81,27.73
11640207,0.51,-0.85,-0.13,-0.08,-0.41,2.73,-8.44,-4.14,-20.45,-2.06,-7.51,27.75
11649822,0.51,-0.85,-0.13,-0.08,-0.41,2.38,-8.67,-4.41,-13.59,-8.43,-10.87,27.75
11659437,0.50,-0.85,-0.13,-0.08,-0.41,2.53,-8.25,-4.86,-7.36,-13.12,-12.41,27.78
11669052,0.50,-0.85,-0.13,-0.08,-0.41,2.56,-8.17,-4.91,-10.16,-13.05,-8.84,27.78
11678667,0.50,-0.85,-0.13,-0.08,-0.41,2.54,-8.57,-4.63,-11.49,-12.63,-6.04,27.78
11688282,0.50,-0.85,-0.13,-0.08,-0.41,2.65,-8.65,-4.76,-1.55,-13.47,-9.12,27.78
11697897,0.50,-0.85,-0.13,-0.08,-0.41,2.58,-8.09,-4.55,5.87,-11.30,-15.49,27.72
11707512,0.50,-0.85,-0.13,-0.08,-0.26,2.50,-8.02,-4.28,0.69,-6.19,-18.22,27.72
11717127,0.50,-0.85,-0.13,-0.08,-0.26,2.77,-7.93,-4.58,-1.69,-4.30,-18.50,27.77
11726742,0.50,-0.85,-0.14,-0.08,-0.26,2.95,-8.10,-4.54,-1.34,-1.78,-14.16,27.77
11736357,0.50,-0.85,-0.14,-0.08,-0.26,3.03,-8.27,-4.71,1.11,-1.43,-13.53,27.74
11745972,0.50,-0.85,-0.14,-0.08,-0.26,3.23,-8.39,-4.84,-1.06,-1.22,-17.45,27.74
11755587,0.50,-0.85,-0.14,-0.09,-0.26,3.22,-8.15,-4.35,-6.52,0.25,-22.91,27.79
11765202,0.50,-0.85,-0.14,-0.09,-0.29,2.96,-7.55,-4.38,-12.61,-1.43,-23.61,27.79
11774817,0.50,-0.85,-0.14,-0.09,-0.29,2.47,-7.58,-3.98,-24.16,-5.98,-14.72,27.79
11784432,0.50,-0.85,-0.15,-0.09,-0.29,2.82,-7.49,-4.18,-28.15,-19.14,-10.87,27.79
11794047,0.50,-0.85,-0.15,-0.09,-0.29,2.60,-8.51,-3.41,-21.92,-15.29,-2.68,27.75
11803662,0.50,-0.85,-0.15,-0.09,-0.29,2.41,-7.84,-3.81,14.06,-19.98,-5.83,27.75
11813277,0.50,-0.85,-0.15,-0.08,-0.29,2.57,-7.64,-4.58,22.25,-20.96,-3.52,27.75
11822892,0.50,-0.85,-0.15,-0.08,-0.29,2.89,-8.14,-4.74,15.25,-17.39,-0.86,27.75
11832507,0.50,-0.85,-0.15,-0.08,-0.34,3.20,-8.07,-4.97,15.81,-11.44,-1.14,27.80
11842122,0.50,-0.85,-0.15,-0.08,-0.34,3.32,-8.20,-5.29,6.71,-6.19,-1.07,27.80
11851737,0.50,-0.85,-0.15,-0.08,-0.34,3.13,-8.51,-5.24,-5.26,-1.36,-3.38,27.77
11861352,0.50,-0.85,-0.15,-0.08,-0.34,3.21,-8.70,-5.00,-9.60,-0.94,-9.33,27.77
11870967,0.50,-0.85,-0.15,-0.08,-0.34,3.21,-8.89,-5.09,-9.60,-0.94,-14.09,27.77
11880582,0.50,-0.85,-0.15,-0.08,-0.34,3.00,-8.78,-4.94,-11.63,-5.70,-14.09,27.78
11890197,0.50,-0.85,-0.16,-0.08,-0.34,3.00,-8.40,-4.62,-8.76,-12.28,-19.76,27.78
11899812,0.50,-0.85,-0.16,-0.08,-0.17,2.53,-8.40,-4.62,-4.00,-16.34,-26.20,27.75
11909427,0.50,-0.85,-0.16,-0.08,-0.17,2.46,-7.90,-4.28,1.74,-18.09,-30.96,27.75
11919042,0.50,-0.85,-0.16,-0.08,-0.17,2.45,-6.96,-4.12,9.86,-12.14,-31.66,27.80
11928657,0.50,-0.85,-0.17,-0.08,-0.17,2.74,-6.69,-4.28,11.33,-2.06,-26.27,27.80
11938272,0.50,-0.85,-0.17,-0.09,-0.17,3.10,-6.32,-4.31,11.19,4.94,-21.37,27.81
11947887,0.50,-0.84,-0.17,-0.09,-0.17,3.69,-6.03,-4.49,9.65,11.24,-15.70,27.81
11957502,0.50,-0.84,-0.17,-0.09,-0.17,3.88,-6.36,-4.74,3.00,11.52,-4.50,27.79
11967117,0.50,-0.84,-0.17,-0.09,-0.16,3.46,-7.23,-4.47,1.18,3.40,7.33,27.79
11976732,0.50,-0.84,-0.17,-0.09,-0.16,3.29,-7.55,-4.79,6.22,-5.77,11.39,27.79
11986347,0.50,-0.84,-0.17,-0.09,-0.16,2.83,-7.92,-4.66,3.00,-8.64,9.92,27.79
11995962,0.50,-0.84,-0.17,-0.09,-0.16,2.99,-8.24,-4.49,1.67,-12.35,7.12,27.80
12005577,0.50,-0.84,-0.17,-0.08,-0.16,2.90,-7.99,-4.74,1.81,-10.74,3.41,27.80
12015192,0.50,-0.84,-0.17,-0.08,-0.16,2.82,-7.88,-4.38,-3.86,-5.28,1.73,27.77
12024807,0.50,-0.84,-0.17,-0.08,-0.08,2.89,-7.43,-4.23,1.53,-1.50,3.69,27.79
12034422,0.50,-0.84,-0.17,-0.08,-0.08,2.89,-7.43,-4.23,1.53,-1.50,3.69,27.79
12044037,0.50,-0.84,-0.17,-0.08,-0.08,3.14,-7.51,-4.21,7.90,-3.88,7.61,27.79
12053652,0.50,-0.84,-0.17,-0.08,-0.08,3.25,-7.51,-4.61,13.15,-6.19,10.27,27.80
12063267,0.50,-0.84,-0.17,-0.08,-0.08,3.12,-7.89,-4.74,11.33,-6.40,11.60,27.80
12072882,0.51,-0.84,-0.17,-0.08,-0.08,2.90,-8.30,-4.78,12.10,-6.75,8.73,27.79
12082497,0.51,-0.84,-0.17,-0.08,-0.08,2.78,-8.63,-4.92,13.01,-6.89,3.48,27.79
12092112,0.51,-0.84,-0.17,-0.08,-0.41,2.56,-9.13,-5.58,18.82,-5.63,-5.97,27.77
12101727,0.51,-0.84,-0.17,-0.08,-0.41,2.81,-8.56,-5.03,40.59,2.21,-18.57,27.77
12111342,0.51,-0.84,-0.17,-0.08,-0.41,2.78,-7.80,-4.13,41.57,9.56,-16.12,27.79
12120957,0.51,-0.84,-0.17,-0.08,-0.41,3.14,-8.16,-3.96,11.61,10.68,-10.66,27.79
12130572,0.52,-0.84,-0.17,-0.08,-0.41,2.91,-7.91,-3.98,10.49,9.84,-13.53,27.78
12140187,0.52,-0.83,-0.17,-0.08,-0.41,3.03,-7.37,-3.83,8.46,3.75,-14.58,27.78
12149802,0.52,-0.83,-0.17,-0.08,-0.41,3.00,-7.34,-4.04,10.07,-4.58,-13.74,27.82
12159417,0.52,-0.83,-0.17,-0.08,-0.39,2.93,-7.17,-4.02,22.18,-11.09,-6.25,27.82
12169032,0.52,-0.83,-0.17,-0.08,-0.39,2.96,-7.78,-4.25,25.61,-15.43,2.36,27.79
12178647,0.52,-0.83,-0.17,-0.08,-0.39,2.68,-8.45,-4.39,28.34,-18.09,3.55,27.79
12188262,0.52,-0.83,-0.18,-0.08,-0.39,2.73,-8.72,-4.56,29.81,-18.02,-1.14,27.82
12197877,0.52,-0.83,-0.18,-0.07,-0.39,2.63,-8.65,-4.36,25.89,-12.21,-4.64,27.82
12207492,0.53,-0.83,-0.18,-0.07,-0.39,2.66,-8.26,-4.23,18.89,-7.94,-5.90,27.82
12217107,0.53,-0.83,-0.18,-0.07,-0.39,3.00,-8.13,-4.39,6.43,-6.33,-2.33,27.82
12226722,0.53,-0.83,-0.18,-0.07,-0.19,3.19,-8.19,-4.34,1.53,-3.53,-1.28,27.83
12236337,0.53,-0.83,-0.18,-0.07,-0.19,3.09,-7.92,-4.29,6.50,-2.27,-0.44,27.83
12245952,0.53,-0.83,-0.18,-0.07,-0.19,2.89,-8.23,-4.37,9.37,-4.44,4.53,27.83
12255567,0.53,-0.83,-0.18,-0.07,-0.19,2.58,-8.64,-4.31,9.37,-8.99,9.01,27.81
12265182,0.53,-0.83,-0.18,-0.07,-0.19,2.48,-9.00,-4.87,15.46,-8.99,9.01,27.81
12274797,0.53,-0.83,-0.18,-0.07,-0.19,2.48,-9.14,-4.20,28.48,-11.51,5.86,27.79
12284412,0.53,-0.83,-0.18,-0.06,-0.19,2.55,-9.14,-3.57,40.80,-4.30,5.09,27.79
12294027,0.54,-0.82,-0.18,-0.06,-0.27,2.41,-8.68,-3.57,42.97,1.93,8.17,27.79
12303642,0.54,-0.82,-0.17,-0.06,-0.27,2.20,-8.17,-3.87,27.50,5.64,8.17,27.79
12313257,0.54,-0.82,-0.17,-0.06,-0.27,2.13,-8.66,-3.42,7.34,10.68,8.03,27.83
12322872,0.54,-0.82,-0.17,-0.06,-0.27,2.11,-8.08,-3.20,17.70,6.90,4.11,27.83
12332487,0.54,-0.82,-0.17,-0.06,-0.27,2.18,-7.17,-3.61,34.15,-0.38,6.28,27.81
12342102,0.55,-0.82,-0.17,-0.06,-0.27,2.61,-7.48,-3.63,43.11,-7.66,18.04,27.81
12351717,0.55,-0.82,-0.17,-0.06,-0.27,2.67,-7.62,-3.72,61.87,-15.36,27.77,27.77
12361332,0.55,-0.81,-0.17,-0.05,-0.08,2.34,-7.63,-3.91,76.43,-16.97,33.65,27.77
12370947,0.56,-0.81,-0.17,-0.05,-0.08,1.99,-7.74,-3.68,76.92,-14.45,38.27,27.79
12380562,0.56,-0.81,-0.16,-0.04,-0.08,1.47,-7.46,-2.31,45.98,-11.79,49.26,27.79
12390177,0.56,-0.81,-0.16,-0.04,-0.08,0.75,-9.02,-3.35,16.30,-7.24,54.86,27.79
12399792,0.57,-0.81,-0.16,-0.04,-0.08,1.23,-9.73,-3.32,39.47,-10.11,44.22,27.79
12409407,0.57,-0.80,-0.16,-0.03,-0.08,1.00,-9.06,-2.91,80.70,-21.52,34.70,27.81
12419022,0.58,-0.80,-0.16,-0.03,-0.20,1.22,-9.57,-3.00,104.92,-26.28,34.21,27.81
12428637,0.59,-0.79,-0.15,-0.02,-0.20,0.68,-9.18,-1.96,129.91,-22.57,34.00,27.74
12438252,0.60,-0.79,-0.15,-0.01,-0.20,1.03,-7.04,-2.99,150.91,-35.87,30.01,27.74
12447867,0.60,-0.78,-0.15,-0.01,-0.20,1.85,-6.15,-3.41,120.11,-54.28,32.18,27.82
12457482,0.61,-0.78,-0.16,-0.00,-0.20,1.58,-7.17,-2.49,61.87,-65.48,39.11,27.82
12467097,0.61,-0.78,-0.16,0.01,-0.20,1.35,-8.85,-3.62,39.33,-76.75,39.53,27.82
12476712,0.61,-0.78,-0.16,0.02,-0.20,1.31,-9.84,-3.45,42.69,-71.99,37.92,27.82
12486327,0.61,-0.77,-0.16,0.02,-0.15,1.57,-10.91,-4.46,79.79,-57.15,34.28,27.82
12495942,0.62,-0.77,-0.16,0.03,-0.15,1.89,-12.36,-3.01,107.51,-29.57,26.37,27.82
12505557,0.63,-0.76,-0.16,0.03,-0.15,1.36,-10.48,-3.92,167.92,-8.29,8.94,27.82
12515172,0.64,-0.75,-0.16,0.03,-0.15,1.08,-7.69,-4.57,166.38,14.25,6.63,27.82
12524787,0.65,-0.75,-0.15,0.03,-0.15,1.76,-6.58,-4.82,120.81,42.11,5.02,27.83
12534402,0.65,-0.74,-0.15,0.03,-0.15,3.19,-8.58,-1.23,71.53,73.47,32.39,27.83
12544017,0.66,-0.74,-0.14,0.03,-0.15,2.35,-7.59,-3.79,126.41,94.40,30.50,27.81
12553632,0.67,-0.73,-0.13,0.02,-0.26,2.47,-5.90,-3.23,141.18,105.60,40.02,27.81
12563247,0.68,-0.72,-0.12,0.02,-0.26,1.46,-6.04,-1.69,142.79,113.23,56.61,27.84
12572862,0.69,-0.72,-0.11,0.02,-0.26,1.68,-6.67,-0.86,153.78,102.66,83.35,27.84
12582477,0.70,-0.71,-0.10,0.02,-0.26,1.30,-7.49,0.65,176.95,89.57,117.65,27.87
12592092,0.71,-0.70,-0.09,0.03,-0.26,-1.03,-12.91,3.47,122.49,66.96,146.91,27.87
12601707,0.71,-0.70,-0.08,0.03,-0.26,-1.67,-15.92,4.80,-6.52,33.71,81.11,27.81
12611322,0.71,-0.70,-0.08,0.04,-0.26,-0.21,-8.85,-0.14,83.64,-18.65,30.08,27.81
12620937,0.72,-0.69,-0.07,0.04,-0.31,0.63,-8.11,-3.17,59.84,9.91,41.84,27.81
12630552,0.72,-0.69,-0.07,0.04,-0.31,1.92,-10.88,0.62,-2.32,36.65,47.09,27.81
12640167,0.72,-0.69,-0.07,0.04,-0.31,1.65,-10.01,0.49,-2.32,11.17,32.67,27.81
12649782,0.72,-0.69,-0.07,0.04,-0.31,0.43,-8.49,-0.83,19.10,11.17,29.24,27.82
12659397,0.72,-0.69,-0.06,0.04,-0.31,0.26,-8.84,-0.68,26.66,3.40,29.24,27.82
12669012,0.72,-0.69,-0.06,0.04,-0.31,0.26,-8.84,0.59,14.69,7.32,33.72,27.89
12678627,0.72,-0.69,-0.06,0.04,-0.31,0.29,-10.17,0.59,12.45,21.74,43.17,27.89
12688242,0.72,-0.69,-0.05,0.05,-0.20,0.51,-9.98,0.97,42.62,30.28,41.07,27.81
12697857,0.73,-0.68,-0.05,0.05,-0.20,1.19,-8.99,0.75,64.95,38.96,38.69,27.81
12707472,0.73,-0.68,-0.04,0.04,-0.20,0.11,-8.71,0.61,59.14,50.86,14.19,27.84
12717087,0.73,-0.68,-0.04,0.04,-0.20,1.30,-9.33,2.24,17.70,51.63,32.18,27.84
12726702,0.73,-0.68,-0.04,0.04,-0.20,0.87,-10.02,0.94,-2.46,32.45,21.33,27.86
12736317,0.73,-0.68,-0.04,0.04,-0.20,-0.47,-8.63,-0.13,-10.16,13.06,18.60,27.86
12745932,0.73,-0.68,-0.03,0.04,-0.25,-0.14,-9.88,-0.59,-56.29,0.32,45.34,27.86
12755547,0.72,-0.69,-0.03,0.05,-0.25,-0.17,-10.90,-2.28,-45.37,-15.29,46.04,27.86
12765162,0.72,-0.69,-0.03,0.05,-0.25,0.27,-12.11,-1.56,-56.71,-10.39,41.49,27.83
12774777,0.72,-0.69,-0.03,0.05,-0.25,0.15,-13.26,-1.44,-23.67,11.66,24.62,27.83
12784392,0.72,-0.69,-0.03,0.05,-0.25,-0.02,-12.00,-0.64,29.04,25.17,2.01,27.87
12794007,0.72,-0.69,-0.02,0.05,-0.25,-0.62,-9.62,0.51,69.71,40.22,-26.83,27.87
12803622,0.73,-0.68,-0.02,0.04,-0.25,-0.24,-7.68,1.24,83.43,51.70,-23.89,27.89
12813237,0.73,-0.68,-0.02,0.04,-0.42,-0.35,-6.26,1.62,72.23,45.26,-3.24,27.89
12822852,0.74,-0.67,-0.02,0.04,-0.42,-0.24,-4.80,1.69,53.12,22.72,30.64,27.84
12832467,0.74,-0.67,-0.01,0.05,-0.42,-0.72,-6.24,0.25,0.13,0.53,74.74,27.84
12842082,0.73,-0.68,-0.01,0.05,-0.42,-0.75,-9.33,1.13,-50.06,-22.08,113.80,27.85
12851697,0.73,-0.68,-0.00,0.06,-0.42,-0.88,-12.14,0.75,-20.80,-25.65,117.02,27.85
12861312,0.73,-0.68,0.00,0.07,-0.42,0.35,-13.31,-0.66,19.31,-13.75,116.18,27.81
12870927,0.73,-0.68,0.01,0.08,-0.42,-0.12,-13.73,-0.57,33.03,8.86,94.76,27.81
12880542,0.73,-0.67,0.02,0.08,-0.10,-0.44,-13.66,0.09,31.49,28.11,64.10,27.85
12890157,0.74,-0.67,0.02,0.08,-0.10,-0.01,-11.87,0.07,42.76,33.15,31.83,27.85
12899772,0.74,-0.67,0.02,0.07,-0.10,0.58,-10.12,0.18,30.09,37.14,6.77,27.85
12909387,0.74,-0.67,0.02,0.07,-0.10,1.49,-8.50,1.81,-3.79,39.17,-7.51,27.85
12919002,0.74,-0.67,0.02,0.07,-0.10,0.53,-8.66,0.62,-21.01,34.41,3.90,27.86
12928617,0.73,-0.68,0.03,0.07,-0.10,1.01,-8.11,2.56,-46.14,2.00,31.27,27.86
12938232,0.73,-0.68,0.03,0.07,-0.10,-2.47,-7.81,1.42,-34.24,-19.56,40.44,27.83
12947847,0.73,-0.68,0.03,0.08,-0.28,-3.16,-9.72,1.36,-49.92,-18.79,75.58,27.83
12957462,0.73,-0.68,0.04,0.09,-0.28,-3.65,-12.45,2.38,-39.28,4.73,96.37,27.79
12967077,0.72,-0.68,0.04,0.09,-0.28,-2.02,-12.85,2.69,-12.75,28.39,73.76,27.79
12976692,0.73,-0.68,0.05,0.09,-0.28,-2.87,-12.85,1.67,19.94,36.65,36.87,27.86
12986307,0.73,-0.68,0.05,0.09,-0.28,-0.80,-11.75,0.98,22.39,17.26,16.36,27.86
12995922,0.73,-0.68,0.05,0.09,-0.28,-1.48,-10.62,0.36,18.12,13.48,-26.41,27.88
13005537,0.73,-0.68,0.05,0.08,-0.28,-1.79,-8.72,-0.13,47.59,8.37,-51.68,27.88
13015152,0.74,-0.67,0.04,0.08,-0.15,-0.71,-7.11,-0.91,83.29,-0.31,-46.85,27.82
13024767,0.74,-0.67,0.04,0.08,-0.15,0.89,-7.03,0.03,83.29,4.87,-27.95,27.82
13034382,0.75,-0.66,0.04,0.07,-0.15,0.54,-7.15,1.27,85.88,4.87,-18.08,27.82
13043997,0.75,-0.65,0.04,0.07,-0.15,-0.84,-7.34,2.98,98.69,4.73,-18.08,27.82
13053612,0.76,-0.65,0.04,0.07,-0.15,-1.56,-7.18,4.02,124.17,-3.74,34.42,27.86
13063227,0.76,-0.64,0.05,0.08,-0.42,-1.29,-7.14,4.46,67.47,7.81,58.50,27.83
13072842,0.77,-0.64,0.05,0.08,-0.42,-1.29,-7.14,3.30,67.47,7.81,58.50,27.83
13082457,0.77,-0.63,0.05,0.09,-0.42,-0.98,-8.14,3.30,56.27,-9.20,69.84,27.83
13092072,0.77,-0.63,0.06,0.09,-0.42,-0.98,-8.14,3.30,56.27,-9.20,69.84,27.83
13101687,0.77,-0.62,0.06,0.10,-0.42,-2.27,-7.40,1.97,41.57,-24.88,69.91,27.86
13111302,0.77,-0.62,0.06,0.10,-0.42,-2.25,-7.85,2.31,13.50,-28.87,70.54,27.86
13120917,0.77,-0.62,0.06,0.11,-0.42,-2.31,-9.15,2.39,14.48,-27.68,63.12,27.84
13130532,0.78,-0.62,0.07,0.11,-0.42,-2.33,-8.72,1.79,58.93,-38.95,43.59,27.84
13140147,0.78,-0.61,0.06,0.12,-0.12,-2.20,-7.29,1.64,87.77,-51.20,27.14,27.84
13149762,0.79,-0.60,0.06,0.12,-0.12,-2.22,-7.33,2.41,81.33,-39.65,24.55,27.84
13159377,0.79,-0.60,0.06,0.12,-0.12,-1.78,-8.78,3.30,71.32,-35.38,24.06,27.83
13168992,0.79,-0.59,0.06,0.13,-0.12,-2.10,-9.32,4.07,67.19,-32.93,12.16,27.83
13178607,0.80,-0.59,0.06,0.13,-0.12,-3.18,-9.64,4.51,59.21,-28.38,0.47,27.82
13188222,0.80,-0.58,0.06,0.13,-0.12,-3.36,-9.86,5.58,58.58,-23.62,-11.50,27.82
13197837,0.80,-0.58,0.06,0.13,-0.12,-3.38,-9.56,5.22,64.53,-23.34,-18.43,27.82
13207452,0.81,-0.57,0.06,0.13,-0.22,-2.81,-8.62,4.47,63.62,-43.36,-20.04,27.82
13217067,0.81,-0.57,0.05,0.13,-0.22,-1.63,-7.65,6.13,60.40,-72.83,-21.51,27.84
13226682,0.81,-0.56,0.04,0.13,-0.22,-1.66,-8.42,4.72,46.96,-96.98,-7.09,27.84
13236297,0.82,-0.56,0.03,0.14,-0.22,-1.34,-8.53,4.85,28.97,-135.62,4.46,27.77
13245912,0.82,-0.56,0.02,0.15,-0.22,-1.48,-10.78,4.98,8.60,-150.60,20.28,27.77
13255527,0.82,-0.55,0.02,0.15,-0.22,-0.78,-11.34,2.64,47.73,-144.58,7.47,27.83
13265142,0.82,-0.54,0.01,0.16,-0.22,-0.35,-11.31,3.55,83.15,-103.14,-14.86,27.83
13274757,0.83,-0.54,0.00,0.16,-0.30,-1.33,-10.18,4.24,108.28,-49.52,-35.37,27.80
13284372,0.83,-0.53,0.00,0.15,-0.30,-2.18,-8.82,3.90,113.74,-6.05,-51.75,27.80
13293987,0.84,-0.52,0.00,0.15,-0.30,-2.48,-8.09,5.53,100.51,20.55,-54.76,27.80
13303602,0.84,-0.51,0.01,0.15,-0.30,-3.27,-8.10,6.79,95.47,26.85,-44.47,27.80
13313217,0.85,-0.51,0.01,0.14,-0.30,-3.73,-7.27,6.98,99.11,16.91,-39.50,27.80
13322832,0.85,-0.50,0.01,0.14,-0.30,-2.79,-6.07,6.23,89.94,4.03,-42.65,27.80
13332447,0.86,-0.50,0.00,0.14,-0.30,-0.91,-5.60,5.39,55.01,-7.52,-50.70,27.81
13342062,0.86,-0.49,0.00,0.13,-0.41,-1.01,-4.65,4.00,25.54,-20.26,-62.11,27.81
13351677,0.86,-0.49,-0.00,0.13,-0.41,-0.80,-5.05,5.15,-17.30,-27.19,-36.00,27.81
13361292,0.86,-0.50,-0.00,0.13,-0.41,-2.11,-6.61,4.33,-28.15,-22.43,1.03,27.81
13370907,0.86,-0.49,-0.00,0.13,-0.41,-0.09,-7.77,1.83,18.19,-7.10,-3.59,27.80
13380522,0.86,-0.49,-0.00,0.13,-0.41,-0.45,-8.11,2.36,44.79,4.80,-0.23,27.80
13390137,0.86,-0.49,-0.00,0.13,-0.41,-0.91,-9.12,4.51,65.51,16.07,3.90,27.80
13399752,0.87,-0.48,0.00,0.13,-0.31,-1.88,-9.24,5.90,105.06,30.56,-5.97,27.80
13409367,0.87,-0.47,0.00,0.13,-0.31,-0.82,-5.77,7.96,117.45,34.06,-4.01,27.80
13418982,0.88,-0.46,0.01,0.13,-0.31,-2.33,-1.93,9.65,117.45,34.06,2.50,27.81
13428597,0.88,-0.46,0.01,0.13,-0.31,-1.19,-7.86,8.58,26.59,34.13,2.50,27.81
13438212,0.88,-0.47,0.01,0.13,-0.31,-1.19,-6.25,3.64,-56.15,-10.25,-13.60,27.78
13447827,0.88,-0.47,0.00,0.12,-0.31,-1.27,-6.25,1.61,-36.48,-65.55,-54.48,27.78
13457442,0.87,-0.47,-0.00,0.12,-0.31,-3.35,-3.83,1.61,-67.28,-22.92,-60.50,27.80
13467057,0.86,-0.49,-0.00,0.13,-0.22,0.07,-15.54,7.39,-188.66,5.29,70.40,27.80
13476672,0.87,-0.48,-0.00,0.13,-0.22,-2.10,-13.98,10.09,37.72,-18.93,18.39,27.81
13486287,0.87,-0.47,0.00,0.13,-0.22,-1.29,-4.46,6.32,189.41,-0.59,-6.32,27.81
13495902,0.88,-0.46,0.00,0.13,-0.22,0.31,-4.83,4.72,82.03,17.75,10.13,27.82
13505517,0.88,-0.46,0.01,0.13,-0.22,-0.33,-8.42,7.75,25.12,19.15,37.57,27.82
13515132,0.88,-0.46,0.01,0.13,-0.22,-1.41,-8.76,6.64,50.95,11.73,51.99,27.83
13524747,0.88,-0.45,0.01,0.14,-0.22,0.95,-9.48,5.67,55.36,12.43,45.06,27.83
13534362,0.88,-0.45,0.02,0.14,-0.24,-3.67,-10.69,6.01,51.58,21.60,29.52,27.78
13543977,0.89,-0.44,0.02,0.14,-0.24,-3.04,-8.08,5.67,83.22,-10.25,6.91,27.78
13553592,0.89,-0.44,0.02,0.14,-0.24,-2.52,-8.55,6.38,63.55,-11.93,8.80,27.77
13563207,0.89,-0.43,0.02,0.14,-0.24,-1.12,-8.11,6.67,70.83,-34.89,-16.19,27.78
13572822,0.89,-0.43,0.01,0.14,-0.24,-1.12,-8.11,6.67,70.83,-34.89,-16.19,27.78
13582437,0.90,-0.42,0.01,0.14,-0.24,-0.35,-7.14,6.07,70.76,-33.42,-31.45,27.78
13592052,0.90,-0.42,0.01,0.13,-0.24,0.42,-7.01,5.69,64.88,-21.31,-34.32,27.75
13601667,0.90,-0.41,0.00,0.13,-0.38,0.89,-7.25,6.12,57.25,0.74,-24.45,27.75
13611282,0.90,-0.41,0.01,0.13,-0.38,0.08,-8.20,6.85,43.88,33.71,-24.38,27.77
13620897,0.91,-0.41,0.01,0.12,-0.38,-0.99,-8.23,7.26,40.17,59.82,-48.39,27.77
13630512,0.91,-0.40,0.01,0.12,-0.38,-1.02,-7.07,6.93,48.71,59.89,-48.18,27.80
13640127,0.91,-0.40,0.01,0.11,-0.38,-1.92,-5.71,5.69,50.04,47.15,-47.69,27.80
13649742,0.91,-0.40,0.01,0.11,-0.38,-0.93,-6.62,5.55,-6.17,18.59,-39.22,27.79
13659357,0.91,-0.41,0.01,0.11,-0.38,-2.69,-8.71,9.00,-65.81,3.12,-18.78,27.79
13668972,0.91,-0.41,0.01,0.10,-0.22,-1.82,-8.33,8.42,-1.62,5.71,-34.11,27.77
13678587,0.91,-0.40,0.01,0.10,-0.22,-0.88,-6.59,6.67,40.87,13.83,-48.81,27.77
13688202,0.91,-0.40,0.01,0.10,-0.22,-1.18,-5.81,7.52,31.42,15.65,-34.04,27.76
13697817,0.91,-0.40,0.02,0.10,-0.22,-1.24,-6.14,6.61,31.98,22.65,-21.93,27.76
13707432,0.91,-0.39,0.02,0.09,-0.22,-0.02,-7.69,6.72,20.36,26.22,-3.66,27.77
13717047,0.91,-0.39,0.02,0.09,-0.22,-1.38,-8.51,7.73,43.39,26.29,3.20,27.77
13726662,0.92,-0.39,0.02,0.09,-0.44,-1.39,-7.81,7.60,72.65,25.03,-7.65,27.82
13736277,0.92,-0.38,0.02,0.09,-0.44,-0.96,-7.05,7.28,67.96,32.24,-20.74,27.82
13745892,0.92,-0.38,0.03,0.09,-0.44,-0.65,-6.18,6.90,50.04,36.44,-31.94,27.77
13755507,0.92,-0.38,0.03,0.08,-0.44,-0.61,-6.12,6.65,22.88,31.40,-25.43,27.77
13765122,0.92,-0.37,0.03,0.08,-0.44,-0.56,-5.60,6.39,11.82,24.12,-21.16,27.77
13774737,0.92,-0.37,0.03,0.08,-0.44,-0.79,-5.78,6.35,-7.50,26.36,-9.47,27.77
13784352,0.92,-0.38,0.03,0.08,-0.44,-0.57,-6.43,6.59,-10.51,26.85,5.58,27.79
13793967,0.92,-0.38,0.03,0.08,-0.15,-0.73,-6.85,7.03,4.89,26.85,15.17,27.79
13803582,0.92,-0.38,0.03,0.08,-0.15,-1.00,-6.77,6.92,4.89,20.48,16.08,27.79
13813197,0.92,-0.37,0.04,0.08,-0.15,-0.98,-6.87,7.70,24.84,20.48,16.08,27.81
13822812,0.93,-0.37,0.04,0.08,-0.15,-1.50,-7.11,8.40,30.79,29.09,18.60,27.81
13832427,0.93,-0.37,0.04,0.08,-0.15,-1.50,-7.11,8.92,35.13,44.07,17.34,27.79
13842042,0.93,-0.36,0.05,0.08,-0.15,-2.05,-7.78,8.92,35.34,47.99,24.13,27.79
13851657,0.93,-0.36,0.05,0.08,-0.15,-2.33,-6.92,8.91,43.25,39.52,11.95,27.78
13861272,0.93,-0.36,0.06,0.08,-0.34,-2.24,-6.60,8.46,26.87,39.52,3.76,27.78
13870887,0.93,-0.36,0.06,0.08,-0.34,-1.21,-6.81,7.96,1.60,27.90,-8.00,27.77
13880502,0.93,-0.36,0.06,0.07,-0.34,-2.22,-6.42,7.64,-13.10,15.23,-27.95,27.77
13890117,0.93,-0.36,0.06,0.07,-0.34,-1.97,-7.11,7.65,-37.32,11.10,-20.95,27.80
13899732,0.93,-0.37,0.06,0.07,-0.34,-2.46,-9.44,8.46,-40.40,22.79,-15.84,27.80
13909347,0.93,-0.37,0.06,0.07,-0.34,-1.94,-9.19,8.49,19.03,17.61,-39.36,27.74
13918962,0.93,-0.36,0.06,0.06,-0.34,-2.46,-7.67,7.17,81.54,11.80,-51.33,27.74
13928577,0.93,-0.35,0.06,0.06,-0.35,-2.02,-6.25,7.90,100.23,16.42,-52.03,27.79
13938192,0.94,-0.34,0.06,0.05,-0.35,-1.40,-5.61,8.45,104.99,15.65,-40.13,27.79
13947807,0.94,-0.33,0.06,0.05,-0.35,-2.30,-5.18,8.52,110.24,-10.32,-22.00,27.79
13957422,0.94,-0.32,0.06,0.05,-0.35,-2.37,-4.48,8.96,107.86,-34.68,8.31,27.79
13967037,0.95,-0.32,0.06,0.06,-0.35,-1.63,-4.87,8.22,99.81,-48.96,32.53,27.80
13976652,0.95,-0.31,0.05,0.06,-0.35,-0.88,-5.14,8.16,97.78,-54.07,45.48,27.80
13986267,0.95,-0.30,0.05,0.07,-0.35,-1.29,-4.94,7.94,113.18,-55.26,52.34,27.78
13995882,0.95,-0.28,0.05,0.07,-0.25,-1.87,-3.13,7.48,130.89,-49.87,49.05,27.78
14005497,0.96,-0.27,0.05,0.07,-0.25,-1.06,-1.63,7.32,105.55,-45.04,52.90,27.77
14015112,0.96,-0.27,0.05,0.08,-0.25,-0.25,-1.96,7.50,36.53,-35.59,65.85,27.77
14024727,0.96,-0.27,0.05,0.09,-0.25,-0.23,-3.32,7.78,-37.53,-20.82,83.42,27.83
14034342,0.95,-0.28,0.05,0.10,-0.25,-2.08,-5.51,7.25,-87.23,-8.78,88.18,27.83
14043957,0.95,-0.29,0.05,0.10,-0.25,-2.88,-7.58,7.79,-120.20,-4.51,76.28,27.79
14053572,0.95,-0.30,0.05,0.11,-0.40,-2.58,-9.38,8.59,-130.63,-2.69,49.12,27.79
14063187,0.94,-0.31,0.05,0.11,-0.40,-1.46,-10.26,7.50,-106.62,-15.64,26.09,27.79
14072802,0.94,-0.31,0.04,0.11,-0.40,-0.75,-10.27,6.26,-58.74,-25.86,11.18,27.79
14082417,0.94,-0.31,0.04,0.11,-0.40,-0.53,-9.84,6.22,1.88,-15.15,-4.15,27.78
14092032,0.94,-0.31,0.04,0.11,-0.40,0.33,-8.29,6.65,74.19,10.61,-21.02,27.78
14101647,0.95,-0.30,0.05,0.11,-0.40,-0.57,-7.27,7.58,128.16,37.49,-15.77,27.76
14111262,0.95,-0.29,0.05,0.10,-0.40,-2.17,-6.02,8.58,166.24,39.80,-2.19,27.76
14120877,0.95,-0.27,0.06,0.10,-0.25,-3.96,0.56,8.77,159.17,20.83,-15.91,27.78
14130492,0.96,-0.27,0.06,0.10,-0.25,-2.72,-1.62,8.72,49.90,17.33,-18.78,27.78
14140107,0.96,-0.27,0.06,0.10,-0.25,-1.67,-5.44,8.71,2.65,-9.55,-14.79,27.75
14149722,0.96,-0.27,0.05,0.10,-0.25,-2.12,-4.41,8.00,15.74,-35.31,-10.45,27.75
14159337,0.96,-0.27,0.05,0.10,-0.25,-1.85,-5.46,7.98,9.09,-13.12,-2.89,27.79
14168952,0.96,-0.27,0.05,0.10,-0.25,-1.06,-5.80,8.58,21.90,2.77,2.22,27.79
14178567,0.96,-0.27,0.05,0.10,-0.25,-1.52,-5.81,9.47,36.46,5.57,8.87,27.77
14188182,0.96,-0.26,0.05,0.10,-0.29,-1.33,-5.80,9.90,36.46,3.68,9.08,27.77
14197797,0.96,-0.26,0.05,0.10,-0.29,-0.70,-5.67,8.46,47.31,3.68,-1.56,27.77
14207412,0.96,-0.26,0.05,0.10,-0.29,-0.91,-5.36,8.01,50.53,-9.97,-1.56,27.76
14217027,0.96,-0.25,0.05,0.10,-0.29,-0.91,-5.36,8.32,35.34,-22.15,-5.41,27.76
14226642,0.96,-0.25,0.05,0.10,-0.29,-0.79,-4.19,8.32,23.09,-14.73,-0.72,27.75
14236257,0.96,-0.25,0.05,0.10,-0.29,-0.83,-3.94,8.43,16.86,-11.23,0.19,27.75
14245872,0.96,-0.25,0.04,0.10,-0.29,-0.91,-4.56,9.58,13.64,-22.57,5.72,27.77
14255487,0.96,-0.24,0.04,0.10,-0.34,-1.38,-4.02,9.21,29.32,-36.99,12.72,27.77
14265102,0.96,-0.24,0.04,0.10,-0.34,-1.41,-5.04,9.54,31.49,-38.46,19.44,27.79
14274717,0.96,-0.24,0.04,0.11,-0.34,-1.60,-5.65,9.76,47.38,-33.42,22.73,27.79
14284332,0.97,-0.23,0.04,0.11,-0.34,-1.84,-4.73,9.00,65.23,-32.93,25.81,27.79
14293947,0.97,-0.23,0.04,0.11,-0.34,-1.77,-4.54,8.46,56.48,-34.33,26.02,27.79
14303562,0.97,-0.23,0.03,0.11,-0.34,-1.25,-4.83,7.81,36.18,-28.73,14.26,27.79
14313177,0.97,-0.22,0.03,0.11,-0.35,-0.90,-4.64,7.57,17.84,-17.46,-0.72,27.79
14322792,0.97,-0.23,0.03,0.11,-0.32,-0.93,-4.17,8.45,0.55,-7.80,-8.35,27.80
14332407,0.97,-0.22,0.03,0.11,-0.32,-1.27,-4.18,9.19,-5.68,-10.53,-6.18,27.80
14342022,0.97,-0.22,0.03,0.11,-0.32,-1.43,-3.78,9.26,0.55,-21.24,-0.58,27.78
14351637,0.97,-0.22,0.03,0.11,-0.32,-1.67,-3.79,9.36,-1.34,-29.92,5.72,27.78
14361252,0.97,-0.22,0.03,0.11,-0.32,-1.60,-4.24,9.29,-4.07,-33.21,8.52,27.80
14370867,0.97,-0.22,0.03,0.12,-0.32,-1.83,-4.43,9.00,-3.93,-29.01,8.52,27.80
14380482,0.97,-0.22,0.02,0.12,-0.38,-1.62,-4.60,9.09,-2.46,-23.97,8.45,27.79
14390097,0.97,-0.22,0.02,0.12,-0.38,-1.18,-4.40,8.46,7.62,-21.59,7.47,27.79
14399712,0.97,-0.22,0.02,0.12,-0.38,-1.05,-5.06,8.93,11.96,-19.91,12.44,27.79
14409327,0.97,-0.22,0.02,0.12,-0.38,-0.87,-4.48,8.28,24.84,-20.54,11.53,27.79
14418942,0.97,-0.22,0.02,0.12,-0.38,-0.69,-4.72,8.59,18.12,-17.32,7.82,27.80
14428557,0.97,-0.22,0.02,0.12,-0.38,-0.80,-5.15,9.26,12.52,-8.43,4.60,27.80
14438172,0.97,-0.22,0.02,0.12,-0.38,-0.55,-4.19,9.77,2.37,3.47,7.61,27.79
14447787,0.97,-0.22,0.02,0.12,-0.06,-1.97,-4.19,10.36,-11.14,16.77,5.72,27.79
14457402,0.97,-0.22,0.02,0.12,-0.06,-1.96,-3.76,10.79,-16.11,19.01,-7.58,27.82
14467017,0.97,-0.22,0.02,0.12,-0.06,-1.41,-3.51,10.36,-21.99,17.12,-18.57,27.82
14476632,0.97,-0.22,0.02,0.12,-0.06,-0.93,-3.88,9.91,-26.89,10.89,-10.80,27.77
14486247,0.97,-0.22,0.02,0.12,-0.06,-0.87,-4.42,10.17,-17.65,2.56,1.80,27.77
14495862,0.97,-0.22,0.02,0.12,-0.06,-1.35,-4.32,9.81,2.02,-7.87,10.27,27.82
14505477,0.97,-0.22,0.02,0.12,-0.06,-1.68,-4.64,9.51,-1.20,-16.41,20.28,27.82
14515092,0.97,-0.23,0.02,0.12,-0.37,-1.17,-5.58,9.41,-9.74,-13.54,17.34,27.76
14524707,0.97,-0.23,0.02,0.13,-0.37,-0.34,-6.45,8.46,0.83,-6.05,9.15,27.76
14534322,0.97,-0.22,0.02,0.13,-0.37,0.12,-5.58,7.87,27.85,-3.32,-1.84,27.76
14543937,0.97,-0.22,0.02,0.12,-0.37,-0.29,-4.50,7.86,40.45,5.78,-10.45,27.76
14553552,0.97,-0.22,0.02,0.12,-0.37,-1.44,-4.37,8.62,33.17,14.95,-5.97,27.76
14563167,0.97,-0.22,0.02,0.12,-0.37,-1.20,-4.79,9.19,30.16,7.53,21.05,27.76
14572782,0.97,-0.22,0.03,0.12,-0.37,0.82,-4.41,9.13,22.46,12.71,1.59,27.76
14582397,0.97,-0.22,0.03,0.12,-0.33,0.02,-4.15,8.49,22.46,12.71,-10.80,27.79
14592012,0.97,-0.21,0.03,0.12,-0.33,-0.34,-2.98,9.28,10.91,26.29,-10.80,27.79
14601627,0.97,-0.21,0.03,0.12,-0.33,-0.90,-2.51,8.80,-11.35,15.44,4.60,27.80
14611242,0.97,-0.21,0.03,0.12,-0.33,-0.90,-2.51,9.04,-11.35,15.44,4.60,27.80
14620857,0.97,-0.22,0.03,0.12,-0.33,-1.14,-3.67,9.04,-44.53,11.10,23.85,27.79
14630472,0.97,-0.22,0.03,0.13,-0.33,-1.75,-4.84,8.84,-62.80,10.26,31.13,27.79
14640087,0.96,-0.23,0.03,0.13,-0.33,-1.95,-6.31,8.40,-66.79,12.92,25.67,27.77
14649702,0.96,-0.23,0.03,0.13,-0.30,-1.19,-6.65,8.03,-37.46,6.69,3.76,27.77
14659317,0.96,-0.23,0.03,0.13,-0.30,-0.93,-5.98,7.89,-0.78,6.62,-13.74,27.79
14668932,0.96,-0.23,0.03,0.13,-0.30,-0.80,-4.68,8.10,35.83,8.72,-24.66,27.79
14678547,0.97,-0.23,0.03,0.12,-0.30,-1.08,-2.96,8.06,59.42,5.57,-19.69,27.78
14688162,0.97,-0.22,0.03,0.12,-0.30,-0.57,-1.98,7.77,45.77,-2.97,-2.26,27.78
14697777,0.97,-0.22,0.04,0.12,-0.30,-2.01,-2.72,8.77,2.65,4.10,13.35,27.77
14707392,0.97,-0.22,0.03,0.13,-0.50,-1.42,-4.42,8.73,-28.71,-22.22,18.25,27.77
14717007,0.96,-0.23,0.03,0.13,-0.50,-1.56,-5.28,8.01,-36.62,-26.21,19.72,27.75
14726622,0.96,-0.23,0.03,0.13,-0.50,-1.69,-5.92,7.65,-31.65,-20.75,14.47,27.75
14736237,0.96,-0.23,0.03,0.13,-0.50,-1.59,-6.12,7.48,-12.47,-8.15,2.71,27.82
14745852,0.96,-0.23,0.03,0.13,-0.50,-1.49,-5.25,7.67,9.58,4.80,-9.05,27.82
14755467,0.96,-0.23,0.03,0.13,-0.50,-1.19,-4.65,8.43,18.82,16.91,-16.75,27.78
14765082,0.96,-0.23,0.03,0.13,-0.50,-2.00,-3.78,9.15,20.64,23.42,-16.33,27.78
14774697,0.96,-0.23,0.04,0.12,-0.34,-1.89,-3.34,9.37,18.82,15.30,-17.73,27.76
14784312,0.97,-0.23,0.04,0.12,-0.34,-1.73,-4.13,8.70,17.35,-9.13,-23.54,27.76
14793927,0.97,-0.22,0.03,0.12,-0.34,0.59,-3.69,9.81,24.63,-15.43,-17.94,27.77
14803542,0.97,-0.22,0.03,0.12,-0.34,-1.18,-2.95,8.28,25.61,0.95,-9.47,27.77
14813157,0.97,-0.22,0.03,0.12,-0.34,-1.42,-3.01,9.03,0.76,-4.51,-6.25,27.79
14822772,0.97,-0.22,0.03,0.12,-0.34,-1.14,-3.73,9.22,-11.28,-8.22,-0.09,27.79
14832387,0.97,-0.22,0.03,0.12,-0.34,-0.57,-4.40,9.80,-18.70,-11.79,6.49,27.79
14842002,0.97,-0.22,0.03,0.12,-0.36,-1.10,-4.19,8.99,-13.24,-12.21,3.69,27.79
14851617,0.97,-0.22,0.03,0.12,-0.36,-1.19,-4.16,8.85,-13.94,-11.44,0.12,27.79
14861232,0.97,-0.22,0.03,0.12,-0.36,-1.06,-4.83,8.66,-12.12,-7.17,-2.12,27.79
14870847,0.97,-0.23,0.03,0.12,-0.36,-1.06,-5.41,9.02,-2.67,-4.51,-6.74,27.79
14880462,0.97,-0.23,0.03,0.12,-0.36,-1.23,-4.93,9.76,12.87,-6.19,-6.74,27.79
14890077,0.97,-0.22,0.03,0.12,-0.36,-1.28,-4.38,8.95,24.42,-1.57,-8.07,27.82
14899692,0.97,-0.22,0.03,0.12,-0.36,-1.38,-4.28,9.27,16.37,3.40,-9.33,27.82
14909307,0.97,-0.22,0.03,0.12,-0.34,-1.24,-3.78,9.97,7.27,0.95,-7.51,27.77
14918922,0.97,-0.22,0.03,0.12,-0.34,-1.44,-3.99,8.70,-5.82,4.45,-3.80,27.77
14928537,0.97,-0.23,0.03,0.12,-0.34,-1.31,-4.75,9.51,-32.35,6.69,0.68,27.77
14938152,0.97,-0.23,0.03,0.12,-0.34,-1.33,-5.47,9.11,-29.20,2.70,-2.82,27.77
14947767,0.97,-0.23,0.03,0.12,-0.34,-0.89,-5.37,8.82,-13.59,-0.87,-2.96,27.75
14957382,0.97,-0.23,0.03,0.12,-0.34,-0.87,-5.22,8.26,5.24,-2.06,1.31,27.75
14966997,0.97,-0.23,0.03,0.12,-0.30,-0.74,-4.64,8.51,5.24,-2.06,1.03,27.75
14976612,0.97,-0.23,0.03,0.12,-0.37,-1.04,-4.15,8.56,22.39,-5.00,1.03,27.82
14986227,0.97,-0.23,0.03,0.12,-0.37,-1.04,-4.28,8.83,29.11,-4.23,3.62,27.82
14995842,0.97,-0.22,0.03,0.12,-0.37,-0.98,-4.28,9.28,21.48,-6.19,11.11,27.81
15005457,0.97,-0.22,0.03,0.12,-0.37,-1.10,-4.43,9.28,17.56,-11.09,16.71,27.81
15015072,0.97,-0.22,0.03,0.12,-0.37,-1.12,-4.08,9.44,20.85,-18.30,20.63,27.81
15024687,0.97,-0.22,0.03,0.13,-0.37,-1.33,-3.80,9.06,17.91,-22.36,20.70,27.81
15034302,0.97,-0.22,0.03,0.13,-0.36,-1.37,-4.08,9.04,0.62,-20.26,21.47,27.79
15043917,0.97,-0.22,0.02,0.13,-0.36,-1.24,-4.69,8.48,-14.64,-13.33,16.43,27.79
15053532,0.97,-0.22,0.02,0.13,-0.36,-1.02,-5.58,8.91,-24.65,-2.48,10.69,27.80
15063147,0.97,-0.22,0.02,0.13,-0.36,-1.04,-5.70,8.92,-7.22,1.09,2.99,27.80
15072762,0.97,-0.22,0.02,0.13,-0.36,-0.83,-4.77,8.52,18.61,-1.08,-6.11,27.78
15082377,0.97,-0.22,0.02,0.13,-0.36,-0.72,-3.94,8.30,26.45,0.18,-7.86,27.78
15091992,0.97,-0.22,0.02,0.13,-0.36,-0.40,-3.84,9.30,17.14,3.75,0.47,27.77
15101607,0.97,-0.22,0.02,0.13,-0.22,-0.61,-3.27,9.25,17.07,-18.93,8.31,27.75
15111222,0.97,-0.21,0.02,0.13,-0.22,-1.92,-4.18,8.47,17.07,-18.93,12.44,27.75
15120837,0.97,-0.21,0.02,0.13,-0.22,-1.92,-4.18,8.47,3.63,-21.87,12.44,27.75
15130452,0.97,-0.21,0.02,0.13,-0.22,0.34,-4.16,9.65,2.93,-25.30,5.65,27.76
15140067,0.97,-0.21,0.02,0.13,-0.22,-1.77,-4.25,7.99,10.35,-12.28,7.19,27.76
15149682,0.97,-0.21,0.02,0.14,-0.22,-1.49,-3.81,9.04,-0.57,-9.41,7.47,27.83
15159297,0.97,-0.21,0.02,0.14,-0.22,-0.68,-4.45,8.82,-6.73,3.89,-2.12,27.83
15168912,0.97,-0.22,0.02,0.13,-0.29,-0.89,-4.79,8.91,-4.84,12.43,-11.57,27.80
15178527,0.97,-0.22,0.02,0.13,-0.29,-0.22,-4.38,9.34,8.46,3.54,-12.69,27.80
15188142,0.97,-0.21,0.02,0.13,-0.29,-0.42,-3.38,9.31,23.23,6.69,-8.98,27.80
15197757,0.97,-0.21,0.02,0.13,-0.29,-1.55,-2.99,8.12,21.83,-9.34,-0.79,27.80
15207372,0.97,-0.21,0.02,0.13,-0.29,-0.16,-3.15,9.27,-5.68,-21.45,12.72,27.77
15216987,0.97,-0.21,0.01,0.14,-0.29,-0.51,-4.35,9.09,-18.77,-18.72,22.24,27.77
15226602,0.97,-0.21,0.01,0.14,-0.29,-0.89,-4.62,9.57,-12.61,-20.82,25.32,27.77
15236217,0.97,-0.21,0.01,0.14,-0.13,-0.81,-4.38,9.69,0.13,-15.08,20.42,27.77
15245832,0.97,-0.21,0.01,0.14,-0.13,-0.53,-3.75,9.00,8.88,-3.32,8.66,27.78
15255447,0.97,-0.21,0.01,0.14,-0.13,-0.78,-3.69,9.27,7.06,12.71,6.21,27.78
15265062,0.97,-0.21,0.01,0.14,-0.13,-0.54,-3.46,10.30,11.96,12.43,3.20,27.78
15274677,0.97,-0.21,0.01,0.14,-0.13,-0.79,-3.07,9.67,18.54,5.15,-0.37,27.78
15284292,0.97,-0.20,0.01,0.14,-0.13,-0.22,-3.18,9.30,6.43,-2.97,8.31,27.76
15293907,0.97,-0.20,0.01,0.14,-0.24,-0.25,-3.77,9.56,-8.48,-8.15,14.96,27.76
15303522,0.97,-0.21,0.01,0.14,-0.28,-0.72,-4.24,9.12,-13.38,-15.50,16.57,27.78
15313137,0.97,-0.21,0.01,0.15,-0.28,-2.35,-5.41,8.03,-13.87,-31.74,10.83,27.78
15322752,0.97,-0.21,0.01,0.15,-0.28,1.61,-6.05,9.81,-18.14,-16.76,-2.75,27.80
15332367,0.97,-0.21,0.01,0.14,-0.28,-0.93,-6.86,7.55,9.23,6.27,-18.50,27.80
15341982,0.97,-0.21,0.01,0.14,-0.28,-0.24,-4.47,8.81,43.67,6.97,-30.12,27.80
15351597,0.97,-0.20,0.01,0.14,-0.28,-0.57,-3.08,8.94,43.67,22.23,-29.28,27.77
15361212,0.97,-0.20,0.01,0.14,-0.26,-0.54,-2.64,9.44,53.33,22.23,-29.28,27.77
15370827,0.97,-0.20,0.01,0.13,-0.26,-0.54,-2.94,10.54,27.22,27.62,-19.69,27.81
15380442,0.97,-0.19,0.01,0.13,-0.26,-0.96,-2.94,10.17,-2.95,18.45,0.68,27.81
15390057,0.97,-0.20,0.01,0.13,-0.26,-0.82,-3.21,10.17,-18.28,-1.57,9.50,27.78
15399672,0.97,-0.20,0.01,0.14,-0.26,-0.58,-4.31,9.39,-36.34,-13.54,16.50,27.78
15409287,0.97,-0.20,0.01,0.14,-0.26,-0.10,-5.21,8.83,-29.69,-17.46,16.29,27.77
15418902,0.97,-0.20,0.01,0.14,-0.26,-0.12,-4.83,8.35,6.78,-16.06,6.42,27.77
15428517,0.97,-0.20,0.01,0.14,-0.15,-0.52,-4.37,8.51,30.30,-5.91,6.42,27.80
15438132,0.97,-0.20,0.01,0.14,-0.15,-0.77,-3.85,8.99,36.60,0.60,8.94,27.80
15447747,0.97,-0.19,0.01,0.14,-0.15,-0.77,-3.59,9.31,25.19,-0.31,8.10,27.79
15457362,0.97,-0.19,0.01,0.14,-0.15,-1.00,-3.74,9.70,5.38,-0.38,6.14,27.79
15466977,0.97,-0.20,0.01,0.14,-0.15,-1.02,-4.07,9.30,-7.08,-5.28,2.92,27.80
15476592,0.97,-0.20,0.01,0.14,-0.15,-0.86,-4.41,9.04,-13.52,-6.12,1.59,27.80
15486207,0.97,-0.20,0.01,0.14,-0.15,-0.68,-4.37,8.82,-11.49,-3.53,-3.10,27.78
15495822,0.97,-0.20,0.01,0.14,-0.16,-0.82,-4.52,8.48,-10.16,3.40,-7.37,27.78
15505437,0.97,-0.20,0.01,0.14,-0.16,-0.87,-4.78,9.23,-5.54,10.26,-7.72,27.82
15515052,0.97,-0.20,0.01,0.14,-0.16,-1.02,-4.30,9.54,14.97,7.67,-7.37,27.82
15524667,0.97,-0.20,0.01,0.14,-0.16,-0.90,-3.47,9.19,25.47,4.45,-8.14,27.79
15534282,0.97,-0.20,0.01,0.14,-0.16,-1.04,-3.31,9.26,12.94,4.45,-3.66,27.79
15543897,0.97,-0.20,0.01,0.14,-0.16,-1.05,-3.35,9.79,2.72,3.05,-0.72,27.78
15553512,0.97,-0.20,0.01,0.14,-0.16,-0.77,-3.50,9.15,1.39,0.60,-3.94,27.78
15563127,0.97,-0.20,0.01,0.14,-0.04,-0.59,-3.68,9.04,-1.76,0.53,-5.20,27.77
15572742,0.97,-0.20,0.01,0.14,-0.04,-0.86,-4.00,9.21,-3.23,2.14,-1.14,27.77
15582357,0.97,-0.20,0.01,0.14,-0.04,-0.91,-4.00,9.10,3.77,0.25,-0.09,27.80
15591972,0.97,-0.20,0.01,0.14,-0.04,-1.00,-3.52,9.22,8.32,1.16,-3.52,27.80
15601587,0.97,-0.20,0.02,0.14,-0.04,-1.40,-3.59,9.39,-1.83,13.13,-4.50,27.78
15611202,0.97,-0.20,0.02,0.14,-0.04,-1.09,-4.11,9.90,-12.68,19.29,-5.55,27.78
15620817,0.97,-0.20,0.02,0.13,-0.16,-0.97,-3.95,9.62,-12.68,19.15,-11.78,27.78
15630432,0.97,-0.20,0.02,0.13,-0.16,-0.69,-4.06,9.16,-18.63,18.17,-15.70,27.78
15640047,0.97,-0.20,0.02,0.13,-0.16,-0.75,-4.24,8.85,-18.63,13.62,-15.07,27.78
15649662,0.97,-0.20,0.02,0.13,-0.16,-0.49,-3.84,8.52,-4.14,8.93,-15.00,27.78
15659277,0.97,-0.20,0.02,0.13,-0.16,0.04,-3.46,8.81,6.78,7.18,-11.15,27.77
15668892,0.97,-0.20,0.02,0.13,-0.16,-2.05,-3.55,8.25,18.61,-2.90,-7.93,27.77
15678507,0.97,-0.20,0.02,0.13,-0.16,-0.03,-2.77,9.21,13.08,-14.10,-1.21,27.77
15688122,0.97,-0.20,0.02,0.13,-0.07,-0.63,-3.91,8.28,0.27,-11.58,7.75,27.77
15697737,0.97,-0.20,0.02,0.13,-0.07,0.57,-3.57,9.49,-4.70,-8.22,8.31,27.80
15707352,0.97,-0.20,0.02,0.13,-0.07,-4.58,-4.27,9.08,-4.49,6.41,17.06,27.80
15716967,0.97,-0.20,0.02,0.13,-0.07,-0.94,-3.99,10.49,-2.04,-6.26,-0.79,27.77
15726582,0.97,-0.20,0.02,0.13,-0.07,-0.08,-4.79,9.23,-0.08,11.03,-17.31,27.77
15736197,0.97,-0.20,0.02,0.13,-0.07,-1.07,-3.79,9.38,-0.08,13.76,-17.94,27.77
15745812,0.97,-0.20,0.02,0.13,-0.07,-1.40,-2.73,9.45,11.33,13.76,-19.55,27.75
15755427,0.97,-0.20,0.02,0.12,-0.18,0.19,-2.38,9.83,16.65,9.98,-19.55,27.75
15765042,0.97,-0.20,0.02,0.12,-0.18,0.19,-2.38,7.58,-0.22,8.65,-9.96,27.77
15774657,0.97,-0.20,0.02,0.12,-0.18,-1.21,-3.38,7.58,-3.30,12.78,10.48,27.77
15784272,0.97,-0.20,0.02,0.13,-0.18,-0.59,-4.02,10.73,-26.33,3.68,23.50,27.77
15793887,0.97,-0.20,0.02,0.13,-0.18,-1.08,-4.37,9.51,-8.48,-13.89,16.50,27.77
15803502,0.97,-0.20,0.02,0.13,-0.18,-0.61,-4.67,8.56,-12.33,-15.64,11.53,27.79
15813117,0.97,-0.20,0.02,0.13,-0.18,-1.01,-4.70,8.56,-11.98,-8.22,5.79,27.79
15822732,0.97,-0.21,0.02,0.13,-0.06,-1.06,-4.56,8.91,-5.89,6.83,0.75,27.82
15832347,0.97,-0.21,0.02,0.13,-0.06,-0.89,-4.23,9.03,0.48,18.03,-6.74,27.82
15841962,0.97,-0.21,0.02,0.13,-0.06,-0.72,-3.85,9.15,1.11,22.58,-13.95,27.77
15851577,0.97,-0.21,0.02,0.12,-0.06,-0.67,-3.61,9.67,1.39,21.32,-14.79,27.77
15861192,0.97,-0.20,0.02,0.12,-0.06,-0.64,-3.03,9.43,5.38,12.50,-12.69,27.78
15870807,0.97,-0.20,0.02,0.12,-0.06,-0.58,-3.22,9.09,-6.10,4.38,-1.56,27.78
15880422,0.97,-0.21,0.02,0.12,-0.06,-0.54,-3.89,9.06,-12.68,-1.85,7.47,27.79
15890037,0.97,-0.21,0.02,0.12,-0.12,-0.78,-4.30,8.97,-7.01,-7.73,13.63,27.79
15899652,0.97,-0.21,0.02,0.13,-0.12,-0.97,-4.34,8.71,-1.13,-11.30,16.71,27.82
15909267,0.97,-0.21,0.02,0.13,-0.12,-1.17,-4.44,8.55,-1.90,-8.85,11.95,27.82
15918882,0.97,-0.21,0.02,0.13,-0.12,-0.86,-4.62,9.00,-5.54,-2.27,5.79,27.77
15928497,0.97,-0.21,0.02,0.13,-0.12,-1.67,-4.61,8.96,-0.08,6.20,0.26,27.77
15938112,0.97,-0.21,0.02,0.13,-0.12,-0.97,-4.28,9.07,8.39,8.02,-3.87,27.79
15947727,0.97,-0.21,0.02,0.13,-0.17,-0.95,-4.19,9.52,13.22,16.21,-5.20,27.79
15957342,0.97,-0.21,0.02,0.13,-0.17,-1.03,-3.37,9.72,20.29,10.61,-7.23,27.79
15966957,0.97,-0.21,0.02,0.13,-0.17,-0.98,-2.98,9.56,12.52,8.16,0.54,27.79
15976572,0.97,-0.20,0.02,0.13,-0.17,-0.86,-3.01,9.38,-3.37,5.64,2.92,27.82
15986187,0.97,-0.21,0.03,0.13,-0.17,-1.03,-3.89,9.51,-19.12,3.54,9.29,27.82
15995802,0.97,-0.21,0.03,0.13,-0.17,-1.09,-4.49,9.37,-14.92,-0.59,11.53,27.80
16005417,0.97,-0.21,0.03,0.13,-0.17,-1.15,-4.63,9.00,-3.37,-3.18,11.81,27.80
16015032,0.97,-0.21,0.03,0.13,-0.05,-1.49,-4.88,8.72,6.78,1.79,10.69,27.81
16024647,0.97,-0.21,0.03,0.13,-0.05,-1.67,-4.94,9.09,15.74,5.57,6.07,27.81
16034262,0.97,-0.21,0.03,0.13,-0.05,-1.55,-4.76,9.45,26.24,9.42,1.45,27.79
16043877,0.97,-0.21,0.03,0.13,-0.05,-1.30,-4.20,9.52,31.84,14.67,-1.70,27.79
16053492,0.97,-0.20,0.03,0.13,-0.05,-1.00,-3.57,9.39,29.53,17.75,-0.44,27.76
16063107,0.97,-0.20,0.03,0.13,-0.05,-0.72,-2.77,9.51,20.22,15.65,2.15,27.76
16072722,0.97,-0.20,0.04,0.13,-0.05,-1.30,-2.46,9.49,0.97,14.04,9.22,27.81
16082337,0.97,-0.20,0.03,0.13,-0.15,-1.04,-3.71,9.63,-19.75,-0.17,14.89,27.81
16091952,0.97,-0.20,0.03,0.13,-0.15,-0.29,-4.28,9.15,-10.23,-13.96,7.26,27.76
16101567,0.97,-0.20,0.03,0.13,-0.15,-1.05,-4.05,8.10,8.95,-18.37,8.17,27.76
16111182,0.97,-0.20,0.03,0.13,-0.15,-0.81,-3.70,7.93,17.49,-17.60,8.80,27.78
16120797,0.97,-0.20,0.03,0.13,-0.15,-0.85,-3.75,8.01,15.88,-10.67,16.22,27.78
16130412,0.97,-0.20,0.03,0.14,-0.15,-0.88,-4.22,9.13,6.78,0.32,14.54,27.79
16140027,0.97,-0.20,0.03,0.14,-0.15,-1.61,-4.05,9.39,6.78,0.32,14.54,27.79
16149642,0.97,-0.20,0.03,0.14,-0.31,-1.61,-4.05,9.37,18.89,3.33,5.65,27.79
16159257,0.97,-0.20,0.03,0.14,-0.31,-1.85,-3.47,9.37,25.26,4.87,2.71,27.81
16168872,0.97,-0.19,0.03,0.14,-0.31,-1.11,-3.54,9.49,15.88,4.24,6.63,27.81
16178487,0.97,-0.19,0.03,0.14,-0.31,-1.61,-3.52,9.27,18.33,4.03,4.60,27.77
16188102,0.97,-0.19,0.03,0.14,-0.31,-0.88,-3.20,9.38,18.47,0.32,1.94,27.77
16197717,0.97,-0.19,0.04,0.14,-0.31,-1.57,-3.83,9.32,10.49,2.07,8.38,27.79
16207332,0.97,-0.19,0.04,0.14,-0.31,-1.06,-3.47,9.42,22.11,-6.40,13.21,27.79
16216947,0.97,-0.18,0.04,0.14,-0.10,-1.08,-2.87,8.79,28.27,-10.46,14.33,27.82
16226562,0.97,-0.18,0.04,0.14,-0.10,-1.49,-3.46,8.83,7.48,-5.14,20.28,27.82
16236177,0.97,-0.18,0.04,0.14,-0.10,-1.26,-3.68,9.31,4.68,-3.81,22.10,27.81
16245792,0.97,-0.18,0.04,0.15,-0.10,-1.25,-3.87,9.54,9.23,3.26,23.85,27.81
16255407,0.97,-0.18,0.04,0.15,-0.10,-2.15,-3.92,9.58,17.56,10.54,22.24,27.78
16265022,0.97,-0.18,0.04,0.15,-0.10,-1.78,-3.66,9.86,24.56,8.16,19.30,27.78
16274637,0.97,-0.18,0.04,0.15,-0.15,-1.50,-2.89,9.64,14.34,12.29,18.39,27.78
16284252,0.97,-0.18,0.04,0.15,-0.15,-1.33,-2.90,9.58,-0.43,16.21,10.62,27.78
16293867,0.97,-0.18,0.04,0.15,-0.15,1.46,-2.80,10.00,-16.39,7.25,30.92,27.82
16303482,0.97,-0.18,0.04,0.16,-0.15,-3.46,-2.81,9.38,-14.15,-14.66,49.54,27.82
16313097,0.97,-0.18,0.04,0.16,-0.15,-0.68,-1.32,8.04,16.30,-28.03,8.66,27.76
16322712,0.97,-0.18,0.04,0.16,-0.15,-0.45,-4.50,7.71,-14.57,-9.62,34.28,27.76
16332327,0.97,-0.18,0.04,0.16,-0.15,-0.89,-4.09,8.96,-1.34,1.02,11.04,27.80
16341942,0.97,-0.18,0.04,0.16,-0.12,-1.30,-2.99,9.38,5.24,2.77,9.78,27.80
16351557,0.97,-0.18,0.04,0.17,-0.12,-1.76,-3.48,9.59,0.48,0.18,17.27,27.80
16361172,0.97,-0.18,0.04,0.17,-0.12,-1.56,-3.78,9.66,5.66,-2.62,22.31,27.80
16370787,0.97,-0.18,0.04,0.17,-0.12,-1.93,-3.91,9.45,7.90,1.44,31.69,27.81
16380402,0.97,-0.18,0.05,0.17,-0.12,-1.57,-2.85,8.87,10.07,0.18,20.14,27.81
16390017,0.97,-0.18,0.05,0.17,-0.12,-1.16,-3.58,9.31,-13.38,8.51,15.38,27.80
16399632,0.97,-0.18,0.05,0.17,-0.12,-1.47,-3.09,9.39,-9.46,6.06,1.59,27.80
16409247,0.97,-0.18,0.05,0.17,-0.12,-1.06,-2.73,9.24,-11.70,5.15,-8.49,27.78
16418862,0.97,-0.18,0.04,0.17,-0.12,-0.81,-2.90,9.20,-17.16,4.45,-10.10,27.78
16428477,0.97,-0.18,0.04,0.17,-0.12,-0.62,-3.07,9.66,-14.08,6.97,-9.33,27.79
16438092,0.97,-0.18,0.04,0.17,-0.12,-1.32,-3.13,9.20,-4.77,3.05,-3.66,27.79
16447707,0.97,-0.18,0.04,0.17,-0.12,-1.46,-3.01,9.74,2.44,0.11,3.90,27.79
16457322,0.97,-0.18,0.04,0.17,-0.12,-1.38,-3.26,9.71,10.21,-5.14,2.99,27.79
16466937,0.97,-0.18,0.04,0.17,-0.12,-1.45,-3.68,9.54,2.09,-3.25,7.68,27.81
16476552,0.97,-0.18,0.04,0.17,-0.17,-1.55,-3.75,9.65,3.84,5.36,9.57,27.81
16486167,0.97,-0.18,0.04,0.17,-0.17,-1.62,-3.56,9.44,8.25,4.03,9.15,27.81
16495782,0.97,-0.18,0.04,0.17,-0.17,-1.43,-3.69,9.31,-2.25,1.51,6.42,27.81
16505397,0.97,-0.18,0.04,0.17,-0.17,-0.83,-3.55,8.95,-9.46,4.52,-1.28,27.81
16515012,0.97,-0.18,0.04,0.17,-0.17,-1.30,-2.95,9.18,-9.46,4.52,-9.82,27.82
16524627,0.97,-0.18,0.04,0.17,-0.17,-1.12,-2.89,9.57,-8.69,5.50,-9.82,27.82
16534242,0.97,-0.18,0.04,0.17,-0.17,-1.12,-3.26,8.93,-11.00,6.20,-11.43,27.75
16543857,0.97,-0.18,0.04,0.17,0.03,-1.33,-3.26,9.17,-11.35,1.44,-11.29,27.75
16553472,0.97,-0.18,0.04,0.17,0.03,-0.91,-3.22,9.17,-10.58,3.05,-11.85,27.79
16563087,0.97,-0.18,0.04,0.17,0.03,-1.56,-3.28,8.99,-4.07,5.71,-12.13,27.79
16572702,0.97,-0.18,0.04,0.17,0.03,-1.61,-3.12,9.38,-1.48,5.29,-3.52,27.77
16582317,0.97,-0.18,0.04,0.17,0.03,-1.79,-3.49,9.51,3.00,0.88,8.38,27.77
16591932,0.97,-0.18,0.04,0.17,0.03,-1.96,-3.70,9.35,6.50,-3.11,14.26,27.79
16601547,0.97,-0.18,0.05,0.17,-0.30,-1.87,-4.19,9.12,-4.63,2.42,14.47,27.79
16611162,0.97,-0.19,0.05,0.17,-0.30,-1.78,-4.21,9.03,-14.64,12.57,9.85,27.79
16620777,0.97,-0.19,0.05,0.17,-0.30,-1.84,-3.85,9.17,-19.40,15.93,5.02,27.79
16630392,0.97,-0.19,0.05,0.17,-0.30,-1.82,-3.66,9.40,-20.31,13.06,6.49,27.76
16640007,0.96,-0.19,0.05,0.17,-0.30,-1.61,-3.71,8.90,-12.75,4.38,4.81,27.82
16649622,0.96,-0.20,0.05,0.17,-0.30,-1.61,-3.71,8.90,-12.75,4.38,4.81,27.82
16659237,0.96,-0.20,0.05,0.17,-0.30,-1.64,-3.68,9.16,-11.21,3.61,6.00,27.82
16668852,0.96,-0.20,0.05,0.17,0.03,-1.90,-3.76,8.70,-7.29,2.42,7.89,27.84
16678467,0.96,-0.20,0.05,0.17,0.03,-1.64,-3.79,9.24,-7.57,-1.08,8.10,27.84
16688082,0.96,-0.20,0.05,0.17,0.03,-1.87,-3.75,8.91,-8.27,-3.88,9.36,27.73
16697697,0.96,-0.20,0.05,0.18,0.03,-1.94,-4.10,9.28,-14.15,2.07,14.96,27.73
16707312,0.96,-0.20,0.05,0.18,0.03,-2.00,-4.18,9.20,-11.28,4.73,18.46,27.80
16716927,0.96,-0.21,0.05,0.18,0.03,-1.60,-3.65,8.82,-8.55,1.79,13.21,27.80
16726542,0.96,-0.21,0.05,0.18,0.03,-1.85,-3.42,9.54,-20.66,3.19,13.63,27.79
16736157,0.96,-0.21,0.05,0.18,-0.05,-1.80,-3.08,9.40,-13.03,-5.84,6.70,27.79
16745772,0.96,-0.21,0.05,0.18,-0.05,-1.95,-3.19,9.19,-9.11,-6.96,8.38,27.77
16755387,0.96,-0.21,0.05,0.18,-0.05,-1.80,-3.32,9.10,-6.80,-4.44,7.96,27.77
16765002,0.96,-0.21,0.05,0.18,-0.05,-1.97,-3.53,9.53,-6.31,-1.36,6.07,27.78
16774617,0.96,-0.20,0.05,0.18,-0.05,-2.08,-3.39,9.59,0.55,1.86,1.80,27.78
16784232,0.96,-0.20,0.05,0.18,-0.05,-2.07,-3.44,9.23,0.83,5.15,1.87,27.76
16793847,0.96,-0.20,0.05,0.18,-0.05,-1.81,-3.49,9.17,-3.09,9.70,1.45,27.76
16803462,0.96,-0.20,0.06,0.18,-0.39,-1.91,-3.76,9.32,-6.87,15.30,-0.37,27.77
16813077,0.96,-0.20,0.06,0.18,-0.39,-1.97,-3.72,9.29,-7.71,14.46,-1.07,27.77
16822692,0.96,-0.21,0.06,0.18,-0.39,-1.93,-3.50,8.77,-8.76,12.29,-0.93,27.76
16832307,0.96,-0.21,0.06,0.18,-0.39,-1.78,-3.74,8.77,-11.98,12.64,1.52,27.76
16841922,0.96,-0.21,0.06,0.18,-0.39,-2.38,-3.94,8.81,-6.80,10.61,1.80,27.79
16851537,0.96,-0.21,0.06,0.18,-0.39,-1.79,-3.72,8.37,-2.39,-2.76,4.18,27.79
16861152,0.96,-0.21,0.06,0.18,-0.39,-1.84,-4.15,9.23,-3.65,1.44,4.18,27.82
16870767,0.96,-0.21,0.06,0.18,0.02,-2.12,-3.86,8.92,1.81,0.25,2.71,27.82
16880382,0.96,-0.21,0.06,0.18,0.02,-2.17,-3.59,9.04,1.81,0.74,5.30,27.80
16889997,0.96,-0.21,0.06,0.18,0.02,-1.80,-3.99,9.04,0.83,0.46,6.56,27.80
16899612,0.96,-0.21,0.06,0.19,0.02,-2.21,-3.96,8.77,0.83,1.72,4.81,27.80
16909227,0.96,-0.21,0.06,0.19,0.02,-1.68,-3.76,9.04,-0.85,1.72,4.81,27.79
16918842,0.96,-0.21,0.06,0.19,0.02,-1.68,-3.76,9.06,-4.84,4.17,5.30,27.79
16928457,0.96,-0.21,0.06,0.19,-0.07,-1.98,-3.76,9.54,-0.50,0.53,4.53,27.77
16938072,0.96,-0.21,0.06,0.19,-0.07,-2.21,-3.99,9.54,-0.64,-0.94,8.03,27.77
16947687,0.96,-0.21,0.06,0.19,-0.07,-2.00,-3.80,8.88,7.20,-5.35,6.28,27.80
16957302,0.96,-0.21,0.06,0.19,-0.07,-2.02,-3.98,9.29,5.03,-1.71,3.34,27.80
16966917,0.96,-0.21,0.06,0.19,-0.07,-1.91,-3.97,9.30,8.11,-0.52,-2.26,27.80
16976532,0.96,-0.21,0.06,0.19,-0.07,-1.98,-3.71,9.17,10.63,-0.66,-5.41,27.80
16986147,0.96,-0.21,0.06,0.19,-0.07,-2.01,-3.30,9.27,15.18,-2.48,-7.72,27.79
16995762,0.96,-0.20,0.06,0.19,-0.20,-1.58,-3.77,9.56,16.02,-1.99,-4.85,27.79
17005377,0.96,-0.20,0.06,0.19,-0.20,-1.95,-3.66,9.02,21.41,-2.90,-4.57,27.80
17014992,0.96,-0.20,0.06,0.19,-0.20,-2.13,-3.57,8.81,16.72,-3.53,-2.68,27.80
17024607,0.96,-0.20,0.06,0.19,-0.20,-1.69,-4.03,9.40,8.04,0.67,1.80,27.80
17034222,0.96,-0.20,0.06,0.18,-0.20,-1.95,-3.63,8.92,15.18,-3.46,-0.30,27.80
17043837,0.96,-0.20,0.06,0.18,-0.20,-1.79,-3.57,9.25,12.94,-4.86,-0.30,27.79
17053452,0.96,-0.20,0.06,0.19,-0.20,-2.04,-3.93,9.26,12.31,-6.47,2.29,27.79
17063067,0.96,-0.20,0.06,0.19,-0.13,-1.77,-3.79,9.00,12.59,-7.31,2.22,27.74
17072682,0.96,-0.20,0.06,0.19,-0.13,-1.81,-3.70,8.81,12.10,-2.97,1.17,27.74
17082297,0.96,-0.20,0.06,0.19,-0.13,-1.65,-3.47,9.09,9.37,-0.45,2.92,27.77
17091912,0.96,-0.20,0.06,0.19,-0.13,-1.68,-3.31,8.99,7.76,-1.57,1.38,27.77
17101527,0.96,-0.19,0.06,0.19,-0.13,-1.74,-3.38,9.19,3.00,-1.50,0.61,27.81
17111142,0.96,-0.19,0.06,0.19,-0.13,-1.97,-3.16,9.15,1.81,-0.17,2.29,27.81
17120757,0.96,-0.19,0.06,0.19,-0.13,-1.51,-3.32,9.23,-2.11,3.33,4.67,27.79
17130372,0.96,-0.19,0.06,0.19,-0.21,-1.92,-3.47,9.25,-0.78,5.01,5.51,27.79
17139987,0.96,-0.19,0.06,0.19,-0.21,-0.89,-2.55,9.29,1.25,2.91,9.36,27.78
17149602,0.96,-0.19,0.06,0.19,-0.21,-0.89,-2.55,9.29,1.25,2.91,9.36,27.78
17159217,0.96,-0.19,0.06,0.19,-0.21,-1.39,-3.32,9.69,6.99,4.31,10.34,27.78
17168832,0.96,-0.19,0.06,0.19,-0.21,-1.39,-3.32,9.69,6.99,4.31,10.34,27.78
17178447,0.96,-0.19,0.06,0.19,-0.21,-1.85,-3.25,9.38,12.66,-1.36,4.60,27.81
17188062,0.96,-0.19,0.06,0.19,-0.21,-1.64,-3.36,9.12,6.08,-3.18,1.24,27.81
17197677,0.96,-0.19,0.06,0.19,-0.07,-1.65,-3.43,9.05,6.22,-1.22,-0.23,27.79
17207292,0.96,-0.19,0.06,0.19,-0.07,-1.72,-3.42,9.30,6.85,0.60,-0.51,27.79
17216907,0.96,-0.19,0.06,0.19,-0.07,-1.88,-3.61,9.41,5.80,-0.03,1.80,27.78
17226522,0.96,-0.19,0.06,0.19,-0.07,-1.70,-3.41,9.29,10.42,-6.05,2.15,27.78
17236137,0.96,-0.18,0.06,0.19,-0.07,-1.82,-3.27,9.29,8.81,-9.55,5.09,27.79
17245752,0.96,-0.18,0.06,0.19,-0.07,-2.08,-3.58,9.40,3.84,-8.71,7.05,27.79
17255367,0.96,-0.18,0.06,0.19,-0.30,-1.94,-3.27,9.00,3.49,-2.55,6.63,27.81
17264982,0.96,-0.18,0.06,0.19,-0.30,-1.79,-3.19,9.32,-1.83,2.84,8.59,27.81
17274597,0.96,-0.18,0.06,0.19,-0.30,-1.51,-3.43,9.52,-5.12,3.26,8.03,27.79
17284212,0.96,-0.18,0.06,0.19,-0.30,-2.05,-2.64,9.30,-5.12,0.81,0.19,27.79
17293827,0.96,-0.18,0.06,0.19,-0.30,-1.39,-3.23,9.32,-3.23,0.81,-0.93,27.79
17303442,0.96,-0.18,0.06,0.19,-0.30,-1.62,-3.51,9.51,-10.51,0.74,-0.93,27.81
17313057,0.96,-0.19,0.05,0.19,-0.30,-1.62,-3.51,9.38,-4.70,0.74,-1.63,27.81
17322672,0.96,-0.18,0.05,0.19,-0.16,-1.49,-3.04,9.38,3.49,-2.83,-1.21,27.80
17332287,0.96,-0.18,0.05,0.19,-0.16,-1.25,-2.92,9.40,3.21,-7.38,-0.09,27.80
17341902,0.96,-0.18,0.05,0.19,-0.16,-1.32,-3.34,9.16,2.30,-5.84,3.27,27.85
17351517,0.96,-0.18,0.05,0.19,-0.16,-1.43,-3.28,9.20,5.03,-1.50,3.34,27.85
17361132,0.96,-0.18,0.05,0.19,-0.16,-1.81,-3.03,9.23,7.41,-1.78,0.82,27.82
17370747,0.96,-0.18,0.05,0.19,-0.16,-1.64,-3.38,9.02,1.95,-3.67,-0.93,27.82
17380362,0.96,-0.18,0.05,0.19,-0.16,-1.66,-3.59,8.96,-2.88,-4.09,-2.82,27.75
17389977,0.96,-0.18,0.05,0.19,-0.32,-2.19,-3.64,8.96,-4.98,-1.85,-3.66,27.75
17399592,0.96,-0.18,0.05,0.19,-0.32,-1.81,-3.41,9.31,-8.20,2.28,-2.75,27.78
17409207,0.96,-0.19,0.05,0.19,-0.32,-2.30,-3.64,9.26,-7.36,4.03,-1.35,27.78
17418822,0.96,-0.19,0.05,0.19,-0.32,-1.84,-3.43,9.26,-4.35,0.88,0.05,27.79
17428437,0.96,-0.19,0.05,0.19,-0.32,-2.32,-3.60,8.78,-2.67,3.12,1.38,27.79
17438052,0.96,-0.19,0.05,0.19,-0.32,-1.95,-3.74,8.90,-8.27,2.14,4.04,27.77
17447667,0.96,-0.19,0.05,0.19,-0.32,-2.07,-3.87,9.07,-6.31,4.45,3.27,27.77
17457282,0.96,-0.19,0.06,0.19,-0.44,-2.15,-3.68,9.30,-4.07,1.72,4.95,27.78
17466897,0.96,-0.19,0.06,0.19,-0.44,-2.16,-3.61,9.05,-0.43,2.00,3.48,27.78
17476512,0.96,-0.19,0.06,0.19,-0.44,-1.87,-3.54,8.99,-2.18,4.24,2.08,27.82
17486127,0.96,-0.19,0.06,0.19,-0.44,-1.82,-3.29,9.23,-6.10,5.36,-0.65,27.82
17495742,0.96,-0.19,0.06,0.19,-0.44,-1.82,-3.22,9.31,-6.66,4.38,-1.77,27.83
17505357,0.96,-0.19,0.06,0.19,-0.44,-1.95,-3.21,9.38,-2.95,1.51,-3.03,27.83
17514972,0.96,-0.19,0.06,0.19,-0.44,-1.98,-3.15,9.16,0.41,0.04,-4.64,27.79
17524587,0.96,-0.19,0.06,0.19,-0.32,-1.88,-3.22,9.18,-2.32,2.28,-4.43,27.79
17534202,0.96,-0.19,0.06,0.19,-0.32,-1.84,-3.20,9.38,-2.11,4.87,-5.48,27.80
17543817,0.96,-0.19,0.06,0.19,-0.32,-1.91,-3.31,9.42,1.46,4.45,-5.62,27.80
17553432,0.96,-0.19,0.06,0.19,-0.32,-2.17,-3.44,9.45,3.84,3.54,-4.64,27.80
17563047,0.96,-0.19,0.06,0.19,-0.32,-1.99,-3.55,9.27,2.86,2.00,-4.57,27.80
17572662,0.96,-0.19,0.06,0.19,-0.32,-1.90,-3.41,8.95,1.74,3.33,-7.44,27.81
17582277,0.96,-0.19,0.06,0.19,-0.27,-1.84,-3.56,9.06,-1.69,3.89,-8.77,27.81
17591892,0.96,-0.19,0.06,0.19,-0.27,-1.78,-3.62,9.20,0.06,2.00,-8.70,27.82
17601507,0.96,-0.19,0.06,0.19,-0.27,-1.93,-3.62,9.05,2.51,0.18,-9.19,27.82
17611122,0.96,-0.19,0.06,0.19,-0.27,-2.00,-3.41,9.10,1.53,1.51,-9.05,27.82
17620737,0.96,-0.19,0.06,0.19,-0.27,-1.95,-3.62,9.25,1.88,1.30,-7.79,27.82
17630352,0.96,-0.19,0.06,0.19,-0.27,-1.81,-3.52,9.29,5.87,1.72,-7.02,27.85
17639967,0.96,-0.19,0.06,0.18,-0.27,-1.98,-3.29,9.06,8.32,0.95,-9.19,27.85
17649582,0.96,-0.19,0.06,0.18,-0.21,-1.91,-3.46,9.26,4.26,2.70,-7.51,27.79
17659197,0.96,-0.19,0.06,0.18,-0.21,-1.98,-3.55,9.55,5.52,2.07,-7.51,27.79
17668812,0.96,-0.19,0.06,0.18,-0.21,-2.33,-3.40,9.08,11.19,0.74,-7.86,27.79
17678427,0.96,-0.19,0.07,0.18,-0.21,-2.12,-3.46,9.43,11.19,0.74,-8.42,27.81
17688042,0.96,-0.19,0.06,0.18,-0.21,-1.90,-3.58,9.16,6.43,0.67,-8.42,27.81
17697657,0.96,-0.19,0.06,0.18,-0.21,-1.90,-3.66,9.28,3.49,0.67,-11.01,27.77
17707272,0.96,-0.19,0.06,0.18,-0.21,-1.80,-3.66,9.28,2.23,2.56,-10.24,27.77
17716887,0.96,-0.19,0.06,0.18,0.02,-2.43,-3.09,8.78,6.85,-0.38,-10.52,27.81
17726502,0.96,-0.19,0.06,0.18,0.02,-1.70,-3.50,9.22,-3.44,-1.22,-2.96,27.81
17736117,0.96,-0.19,0.06,0.18,0.02,-2.03,-3.58,8.95,3.28,-0.38,-4.22,27.82
17745732,0.96,-0.19,0.06,0.18,0.02,-1.77,-3.16,9.01,1.32,1.86,-5.97,27.82
17755347,0.96,-0.19,0.06,0.18,0.02,-1.92,-3.33,9.24,-2.81,1.86,-5.76,27.81
17764962,0.96,-0.19,0.06,0.18,0.02,-1.57,-3.24,9.15,1.11,-0.66,-4.78,27.81
17774577,0.96,-0.19,0.06,0.18,0.02,-1.21,-3.02,9.87,3.63,5.64,-7.44,27.80
17784192,0.96,-0.19,0.06,0.18,-0.27,-2.18,-2.97,8.79,12.87,-0.94,-6.53,27.80
17793807,0.96,-0.18,0.06,0.18,-0.27,-1.56,-2.99,9.51,3.35,-4.02,1.59,27.84
17803422,0.96,-0.18,0.06,0.18,-0.27,-1.78,-3.54,9.11,6.99,-2.97,-0.86,27.84
17813037,0.97,-0.18,0.06,0.18,-0.27,-1.80,-3.27,9.32,5.24,-0.45,-4.64,27.84
17822652,0.97,-0.18,0.06,0.18,-0.27,-1.87,-3.00,9.26,0.48,1.51,-4.64,27.84
17832267,0.97,-0.18,0.06,0.17,-0.27,-1.79,-3.33,9.35,-3.86,3.40,-3.52,27.79
17841882,0.97,-0.18,0.06,0.17,-0.19,-1.85,-3.41,9.48,2.44,2.63,-3.80,27.79
17851497,0.97,-0.18,0.06,0.17,-0.22,-1.78,-3.35,9.18,2.02,-0.24,-1.63,27.83
17861112,0.97,-0.18,0.06,0.17,-0.22,-1.76,-3.47,9.32,-5.05,-0.66,-2.40,27.83
17870727,0.97,-0.18,0.06,0.17,-0.22,-1.74,-3.23,9.37,-3.65,-0.45,-3.87,27.81
17880342,0.97,-0.18,0.06,0.17,-0.22,-1.90,-3.07,9.38,-1.62,0.18,-1.35,27.81
17889957,0.97,-0.18,0.06,0.17,-0.22,-1.96,-3.26,9.28,-4.14,4.17,1.59,27.79
17899572,0.97,-0.18,0.06,0.17,-0.22,-1.90,-3.42,9.09,-4.35,7.53,4.39,27.79
17909187,0.97,-0.19,0.06,0.17,-0.29,-1.38,-3.54,9.30,-2.53,8.09,2.50,27.80
17918802,0.97,-0.19,0.06,0.17,-0.29,-1.61,-3.35,8.81,-2.11,6.48,-0.09,27.80
17928417,0.97,-0.19,0.06,0.17,-0.29,-1.62,-3.25,9.03,-9.74,8.72,-2.40,27.82
17938032,0.97,-0.19,0.06,0.17,-0.29,-1.41,-3.49,9.32,-10.72,8.79,-5.27,27.82
17947647,0.97,-0.19,0.06,0.17,-0.29,-1.98,-2.91,9.22,-4.42,5.92,-7.93,27.80
17957262,0.97,-0.19,0.06,0.17,-0.29,-1.56,-3.13,9.27,-9.46,9.84,-12.97,27.80
17966877,0.97,-0.19,0.06,0.17,-0.29,-1.91,-3.64,9.09,-11.98,13.27,-15.21,27.81
17976492,0.97,-0.19,0.06,0.17,-0.06,-2.25,-3.24,9.56,-13.03,17.96,-16.82,27.81
17986107,0.96,-0.19,0.06,0.17,-0.06,-1.38,-4.01,8.79,-12.61,17.75,-18.57,27.87
17995722,0.96,-0.19,0.07,0.16,-0.06,-2.15,-3.32,8.76,-7.57,20.34,-20.04,27.87
18005337,0.96,-0.19,0.07,0.16,-0.06,-1.77,-3.59,9.60,-11.63,16.91,-9.75,27.84
18014952,0.96,-0.19,0.07,0.16,-0.06,-2.16,-3.56,9.11,-0.36,8.30,-11.43,27.84
18024567,0.96,-0.20,0.07,0.16,-0.06,-1.66,-3.98,8.87,-5.82,8.09,-9.26,27.82
18034182,0.96,-0.20,0.07,0.16,-0.06,-1.93,-3.57,8.88,0.27,4.94,-12.97,27.82
18043797,0.96,-0.20,0.07,0.16,-0.12,-1.96,-3.89,9.04,-2.53,3.47,-8.42,27.83
18053412,0.96,-0.20,0.07,0.16,-0.12,-2.18,-3.74,9.03,1.95,-1.01,-6.25,27.83
18063027,0.96,-0.20,0.07,0.16,-0.12,-2.20,-3.53,9.34,1.95,-2.55,-3.80,27.83
18072642,0.97,-0.20,0.07,0.16,-0.12,-1.97,-3.62,9.28,4.96,-2.55,-3.80,27.81
18082257,0.97,-0.20,0.07,0.16,-0.12,-1.97,-3.49,8.88,8.88,-3.81,-2.96,27.81
18091872,0.97,-0.20,0.07,0.16,-0.12,-1.94,-3.49,8.79,7.55,-2.97,-4.01,27.82
18101487,0.97,-0.20,0.07,0.16,-0.12,-1.78,-3.65,8.79,-0.92,0.18,-7.02,27.82
18111102,0.97,-0.20,0.07,0.16,-0.06,-2.05,-3.20,9.11,-2.95,2.70,-12.13,27.80
18120717,0.97,-0.20,0.07,0.16,-0.06,-1.86,-3.33,9.27,-4.84,5.01,-11.01,27.80
18130332,0.97,-0.20,0.07,0.16,-0.06,-2.03,-3.07,9.53,7.55,0.32,-7.30,27.79
18139947,0.97,-0.19,0.07,0.15,-0.06,-2.43,-3.35,9.24,7.97,-1.50,-9.96,27.79
18149562,0.97,-0.20,0.07,0.15,-0.06,-2.04,-4.30,9.24,-6.24,4.45,-11.22,27.82
18159177,0.97,-0.20,0.07,0.15,-0.06,-1.83,-3.56,8.97,1.88,3.54,-15.28,27.82
18168792,0.97,-0.20,0.07,0.15,-0.21,-2.19,-3.32,9.77,2.23,3.19,-15.35,27.81
18178407,0.97,-0.19,0.07,0.15,-0.21,-2.42,-3.39,9.43,7.90,-3.04,-12.13,27.83
18188022,0.97,-0.19,0.07,0.15,-0.21,-2.42,-3.39,9.43,7.90,-3.04,-12.13,27.83
18197637,0.97,-0.19,0.07,0.15,-0.21,-1.86,-3.74,9.09,-1.83,-1.08,-4.71,27.83
18207252,0.97,-0.19,0.07,0.15,-0.21,-1.94,-2.85,9.01,-19.19,0.25,0.05,27.83
18216867,0.97,-0.20,0.07,0.15,-0.21,-2.24,-3.63,9.18,-55.38,3.75,5.93,27.83
18226482,0.96,-0.20,0.07,0.15,-0.21,-2.01,-4.73,9.62,-56.22,-4.23,7.12,27.77
18236097,0.96,-0.21,0.07,0.15,-0.17,-1.82,-4.32,9.71,-16.95,-13.61,3.69,27.77
18245712,0.96,-0.21,0.07,0.15,-0.17,-1.91,-4.11,7.99,-1.41,-19.56,5.86,27.82
18255327,0.96,-0.21,0.07,0.15,-0.17,-1.74,-4.67,8.59,-15.55,-5.63,6.56,27.82
18264942,0.96,-0.21,0.07,0.15,-0.17,-1.87,-4.81,8.68,-10.30,5.50,-2.26,27.78
18274557,0.96,-0.21,0.07,0.15,-0.17,-1.71,-3.40,8.74,1.60,10.19,-11.92,27.78
18284172,0.96,-0.21,0.07,0.15,-0.17,-1.63,-2.45,9.38,3.35,12.08,-12.34,27.82
18293787,0.96,-0.21,0.07,0.15,-0.17,-1.45,-2.44,9.28,5.31,2.98,-5.62,27.82
18303402,0.96,-0.21,0.07,0.15,-0.24,-1.59,-3.51,9.41,-1.55,-8.01,-0.02,27.81
18313017,0.96,-0.21,0.06,0.15,-0.24,-2.01,-3.45,9.04,-1.90,-15.57,-7.79,27.81
18322632,0.96,-0.21,0.06,0.15,-0.24,-1.92,-3.40,8.41,-23.67,-6.33,-7.86,27.82
18332247,0.96,-0.21,0.06,0.15,-0.24,-1.30,-3.75,8.61,-47.26,-0.80,-5.13,27.82
18341862,0.96,-0.22,0.06,0.15,-0.24,-1.71,-4.63,9.31,-57.62,-2.90,5.09,27.80
18351477,0.96,-0.22,0.06,0.15,-0.24,-1.79,-5.21,9.36,-40.05,-10.81,6.91,27.80
18361092,0.96,-0.22,0.06,0.15,-0.24,-2.10,-4.97,8.72,-16.95,-10.04,1.73,27.82
18370707,0.96,-0.22,0.06,0.15,0.01,-1.83,-4.53,8.26,-7.08,-2.27,-7.72,27.82
18380322,0.96,-0.23,0.06,0.15,0.01,-1.98,-4.29,9.21,0.41,9.98,-17.03,27.81
18389937,0.96,-0.22,0.06,0.15,0.01,-1.94,-3.22,9.34,17.28,14.95,-23.54,27.81
18399552,0.96,-0.22,0.06,0.14,0.01,-2.11,-2.34,9.22,11.33,19.64,-22.63,27.82
18409167,0.96,-0.22,0.06,0.14,0.01,-2.13,-2.52,9.73,-21.15,7.32,-19.20,27.82
18418782,0.96,-0.23,0.06,0.14,0.01,-1.75,-3.35,9.24,-48.94,-2.27,-12.48,27.79
18428397,0.96,-0.23,0.06,0.14,0.01,-1.60,-4.59,8.34,-64.83,-8.64,-4.85,27.79
18438012,0.96,-0.24,0.06,0.14,-0.12,-1.52,-5.52,8.01,-64.20,-9.69,-3.73,27.79
18447627,0.96,-0.24,0.06,0.14,-0.12,-1.54,-6.59,8.19,-64.20,-5.84,1.66,27.79
18457242,0.96,-0.25,0.06,0.14,-0.12,-1.94,-6.72,8.36,-48.45,-5.84,3.34,27.79
18466857,0.96,-0.25,0.06,0.14,-0.12,-1.95,-5.73,8.38,-14.01,-2.69,3.34,27.82
18476472,0.96,-0.25,0.06,0.14,-0.12,-1.95,-5.73,8.17,15.25,0.04,-0.93,27.82
18486087,0.96,-0.25,0.06,0.14,-0.12,-1.69,-4.85,8.17,25.75,6.69,-8.42,27.80
18495702,0.96,-0.25,0.06,0.14,-0.25,-1.67,-4.07,8.92,31.98,18.73,-15.91,27.80
18505317,0.96,-0.24,0.06,0.14,-0.25,-1.86,-2.17,9.81,42.97,18.38,-15.07,27.80
18514932,0.96,-0.24,0.06,0.14,-0.25,-2.03,-1.56,9.55,21.76,7.04,-3.45,27.80
18524547,0.96,-0.24,0.06,0.14,-0.25,-2.00,-2.74,9.50,-23.18,0.11,6.63,27.82
18534162,0.96,-0.24,0.06,0.14,-0.25,-1.78,-4.07,9.11,-45.16,-9.62,11.74,27.82
18543777,0.96,-0.25,0.06,0.14,-0.25,-1.79,-5.17,8.44,-37.46,-10.46,6.84,27.79
18553392,0.96,-0.25,0.06,0.14,-0.25,-1.59,-5.40,8.50,-14.29,-4.44,0.19,27.79
18563007,0.96,-0.25,0.06,0.14,-0.07,-1.91,-5.23,8.65,3.21,-0.52,-1.56,27.79
18572622,0.96,-0.25,0.06,0.14,-0.07,-1.74,-5.05,8.60,6.64,-1.15,-4.01,27.79
18582237,0.96,-0.25,0.06,0.14,-0.07,-1.78,-4.97,8.63,2.72,-0.73,-4.36,27.81
18591852,0.96,-0.25,0.06,0.14,-0.07,-1.90,-4.89,8.54,2.16,-0.24,-4.50,27.81
18601467,0.96,-0.25,0.06,0.14,-0.07,-1.75,-4.64,8.26,5.31,0.88,-5.97,27.80
18611082,0.96,-0.25,0.06,0.14,-0.07,-1.67,-4.51,8.45,3.21,3.61,-4.50,27.80
18620697,0.96,-0.25,0.06,0.14,-0.07,-1.73,-4.25,8.45,1.04,2.77,-4.22,27.79
18630312,0.96,-0.25,0.06,0.14,-0.25,-1.77,-4.47,8.75,-3.37,3.54,-1.98,27.79
18639927,0.96,-0.25,0.06,0.14,-0.25,-1.85,-4.22,8.92,6.22,3.54,-7.58,27.86
18649542,0.96,-0.25,0.06,0.14,-0.25,-1.59,-3.84,8.60,11.61,5.29,-12.06,27.86
18659157,0.96,-0.25,0.06,0.14,-0.25,-1.70,-3.95,8.70,2.37,5.15,-9.96,27.79
18668772,0.96,-0.25,0.06,0.14,-0.25,-1.86,-4.20,9.04,-4.07,0.60,-4.99,27.79
18678387,0.96,-0.24,0.06,0.14,-0.25,-1.93,-4.60,8.97,-0.99,-3.74,-0.02,27.76
18688002,0.96,-0.24,0.06,0.14,-0.25,-2.03,-4.34,9.08,5.73,-3.67,-2.12,27.76
18697617,0.96,-0.24,0.06,0.14,-0.21,-1.92,-4.29,9.03,0.48,-0.24,-2.40,27.78
18707232,0.96,-0.24,0.06,0.14,-0.21,-2.23,-4.81,8.78,-3.86,2.35,-1.49,27.78
18716847,0.96,-0.24,0.06,0.14,-0.21,-1.73,-4.70,9.14,0.20,4.87,-0.65,27.83
18726462,0.96,-0.24,0.06,0.13,-0.21,-2.03,-4.70,8.66,3.91,7.46,-3.66,27.83
18736077,0.96,-0.24,0.06,0.13,-0.21,-1.45,-4.06,8.54,3.91,4.38,-9.12,27.79
18745692,0.96,-0.24,0.06,0.13,-0.21,-2.00,-4.24,8.44,-4.56,7.88,-2.26,27.79
18755307,0.96,-0.24,0.06,0.13,-0.21,-1.45,-4.32,8.66,-5.54,5.78,2.22,27.80
18764922,0.96,-0.24,0.06,0.13,-0.21,-1.30,-4.39,7.61,-1.34,-1.15,-0.16,27.80
18774537,0.96,-0.24,0.06,0.13,-0.21,-1.16,-4.06,8.32,-3.30,-1.01,-1.63,27.84
18784152,0.96,-0.24,0.06,0.13,-0.21,-1.79,-3.65,10.02,-3.51,-0.45,0.68,27.84
18793767,0.96,-0.24,0.06,0.13,-0.21,-2.29,-3.88,8.97,-2.11,-4.37,5.44,27.77
18803382,0.96,-0.24,0.06,0.14,-0.21,-2.00,-4.75,9.12,-20.38,-8.01,14.96,27.77
18812997,0.96,-0.25,0.06,0.14,-0.21,-1.98,-5.35,9.18,-23.25,-8.99,8.24,27.84
18822612,0.96,-0.25,0.06,0.14,0.03,-2.00,-5.47,8.06,-7.57,-1.85,-5.48,27.84
18832227,0.96,-0.25,0.06,0.14,-0.00,-2.01,-4.94,9.08,-7.57,1.65,-9.40,27.84
18841842,0.96,-0.25,0.06,0.13,-0.00,-2.08,-3.84,9.00,5.45,1.65,-14.30,27.82
18851457,0.96,-0.25,0.06,0.13,-0.00,-1.80,-3.71,8.55,17.98,-0.31,-14.30,27.82
18861072,0.96,-0.25,0.06,0.13,-0.00,-1.80,-3.71,8.37,-3.16,1.16,-14.51,27.79
18870687,0.96,-0.25,0.06,0.13,-0.00,-1.40,-5.06,8.37,-30.95,1.23,-7.86,27.79
18880302,0.96,-0.25,0.06,0.13,-0.00,-1.37,-6.01,7.76,-16.46,3.12,-3.31,27.81
18889917,0.96,-0.25,0.06,0.13,0.05,-1.76,-5.04,8.51,9.23,2.21,-5.27,27.81
18899532,0.96,-0.25,0.06,0.13,0.05,-1.47,-4.08,8.79,10.56,0.95,-6.81,27.79
18909147,0.96,-0.25,0.06,0.13,0.05,-1.50,-4.18,8.58,-1.76,2.56,-5.83,27.79
18918762,0.96,-0.25,0.06,0.13,0.05,-1.64,-4.13,8.88,-4.91,-1.85,-6.81,27.84
18928377,0.96,-0.25,0.06,0.13,0.05,-1.76,-3.88,8.74,-7.99,-0.87,-5.83,27.84
18937992,0.96,-0.25,0.06,0.13,0.05,-1.71,-4.16,8.71,-21.64,4.10,-2.68,27.80
18947607,0.96,-0.25,0.06,0.13,0.05,-2.18,-4.67,9.51,-26.82,9.00,-4.22,27.80
18957222,0.96,-0.25,0.06,0.13,0.02,-2.27,-4.40,9.78,-12.68,6.06,-9.19,27.84
18966837,0.96,-0.25,0.06,0.13,0.02,-2.23,-4.35,8.65,-9.04,3.05,-8.07,27.84
18976452,0.96,-0.26,0.06,0.13,0.02,-1.80,-4.98,8.47,-25.21,7.25,-4.29,27.84
18986067,0.96,-0.26,0.06,0.13,0.02,-1.77,-5.24,9.00,-20.80,7.04,-4.64,27.84
18995682,0.96,-0.26,0.06,0.13,0.02,-1.67,-4.93,8.78,-5.40,3.26,-3.03,27.84
19005297,0.96,-0.26,0.06,0.13,0.02,-1.82,-4.85,8.17,-0.57,2.49,-0.16,27.84
19014912,0.96,-0.26,0.06,0.13,0.02,-1.39,-5.02,7.74,1.95,-0.31,1.45,27.81
19024527,0.96,-0.26,0.06,0.13,0.14,-2.23,-4.66,8.62,6.36,-0.52,-0.65,27.81
19034142,0.96,-0.26,0.06,0.13,0.14,-1.67,-4.79,8.03,5.73,-1.92,-5.55,27.82
19043757,0.96,-0.26,0.06,0.12,0.14,-2.14,-4.92,8.04,0.76,5.78,-8.91,27.82
19053372,0.96,-0.26,0.06,0.12,0.14,-1.43,-4.44,8.48,-0.22,2.91,-14.16,27.79
19062987,0.96,-0.26,0.06,0.12,0.14,-1.91,-4.18,8.45,-6.03,10.54,-15.70,27.79
19072602,0.96,-0.26,0.06,0.12,0.14,-1.48,-3.47,9.95,-16.25,3.05,-15.77,27.81
19082217,0.96,-0.26,0.06,0.12,0.14,-0.86,-3.28,9.45,-32.28,5.78,-9.12,27.81
19091832,0.95,-0.27,0.06,0.12,-0.05,-1.77,-4.58,8.18,-50.76,3.33,7.05,27.79
19101447,0.95,-0.27,0.06,0.12,-0.05,-1.96,-6.27,8.70,-44.32,3.89,21.82,27.79
19111062,0.95,-0.27,0.06,0.12,-0.05,-1.78,-6.47,8.69,-6.94,-0.52,21.12,27.79
19120677,0.95,-0.27,0.06,0.13,-0.05,-1.71,-5.63,8.47,12.59,-3.74,10.27,27.79
19130292,0.95,-0.27,0.06,0.13,-0.05,-1.58,-4.92,9.23,7.48,-2.27,4.60,27.82
19139907,0.95,-0.27,0.06,0.13,-0.05,-1.68,-4.80,8.71,10.00,-4.02,7.75,27.82
19149522,0.95,-0.27,0.06,0.13,-0.03,-2.03,-5.32,7.57,14.20,-9.48,5.23,27.81
19159137,0.95,-0.27,0.06,0.13,0.04,0.73,-5.44,8.82,19.66,-17.39,-8.91,27.81
19168752,0.96,-0.26,0.06,0.12,0.04,-3.52,-4.07,9.04,41.71,5.78,-17.10,27.82
19178367,0.96,-0.26,0.06,0.12,0.04,-1.47,-4.25,9.32,20.01,-1.29,-3.38,27.82
19187982,0.96,-0.26,0.06,0.12,0.04,-2.87,-5.61,9.50,12.45,-6.54,-4.57,27.80
19197597,0.96,-0.26,0.06,0.12,0.04,-2.87,-5.61,9.50,12.45,-6.54,-4.57,27.80
19207212,0.96,-0.26,0.06,0.12,0.04,-2.15,-4.31,11.13,18.68,-4.72,0.61,27.80
19216827,0.96,-0.25,0.06,0.13,-0.15,-3.85,-4.86,9.78,27.50,-15.22,18.95,27.80
19226442,0.96,-0.25,0.06,0.13,-0.15,0.96,-3.32,7.82,27.50,-15.22,11.81,27.80
19236057,0.96,-0.24,0.05,0.13,-0.15,0.03,-1.96,7.19,59.49,-77.03,11.81,27.83
19245672,0.96,-0.24,0.05,0.13,-0.15,0.03,-3.94,7.72,37.93,-56.94,31.76,27.83
19255287,0.96,-0.24,0.05,0.14,-0.15,-4.58,-3.94,7.72,-22.13,-19.35,42.96,27.84
19264902,0.96,-0.25,0.04,0.14,-0.15,-2.09,-7.90,9.89,-62.38,-43.57,24.55,27.84
19274517,0.96,-0.25,0.04,0.14,-0.15,-0.06,-7.97,8.85,-13.03,-25.93,-15.77,27.77
19284132,0.96,-0.25,0.04,0.14,0.09,-1.94,-6.29,7.33,39.82,-17.46,-33.34,27.77
19293747,0.96,-0.24,0.04,0.13,0.09,-1.13,-4.66,9.10,63.34,-15.29,-33.13,27.84
19303362,0.96,-0.23,0.04,0.13,0.09,-1.52,-3.40,7.71,72.72,-8.15,-28.09,27.84
19312977,0.96,-0.23,0.04,0.13,0.09,-0.21,-3.10,9.02,47.03,-17.46,-18.15,27.86
19322592,0.96,-0.23,0.04,0.13,0.09,-1.74,-2.62,9.57,23.30,-6.75,-10.59,27.86
19332207,0.96,-0.23,0.03,0.13,0.09,-1.81,-3.35,9.63,-3.65,-14.52,-8.14,27.80
19341822,0.96,-0.23,0.03,0.13,0.09,-1.05,-4.31,8.97,-13.73,-25.72,-4.08,27.80
19351437,0.96,-0.23,0.03,0.13,-0.14,-1.20,-4.69,8.45,-16.95,-28.03,2.57,27.82
19361052,0.96,-0.23,0.03,0.13,-0.14,-1.13,-5.41,8.60,-14.92,-23.06,-4.29,27.82
19370667,0.96,-0.23,0.02,0.13,-0.14,-0.98,-5.36,8.48,-1.06,-13.89,-19.76,27.80
19380282,0.96,-0.23,0.02,0.13,-0.14,-1.21,-4.75,8.49,9.02,-9.27,-31.17,27.80
19389897,0.96,-0.23,0.02,0.12,-0.14,-1.46,-3.90,8.34,8.46,-7.94,-40.27,27.80
19399512,0.97,-0.23,0.02,0.12,-0.14,-0.31,-4.29,9.05,-13.03,1.58,-39.36,27.80
19409127,0.97,-0.23,0.02,0.12,-0.14,-1.51,-4.27,7.72,-15.90,0.74,-54.06,27.83
19418742,0.97,-0.23,0.02,0.11,-0.13,-0.99,-5.14,10.35,-21.36,1.93,-56.23,27.83
19428357,0.97,-0.24,0.02,0.11,-0.13,-0.59,-4.56,8.31,7.13,9.77,-50.14,27.82
19437972,0.97,-0.23,0.02,0.10,-0.13,-0.36,-3.68,8.98,18.40,-4.58,-40.34,27.82
19447587,0.97,-0.23,0.02,0.10,-0.13,-1.83,-4.25,7.34,39.96,-3.95,-29.63,27.82
19457202,0.97,-0.23,0.02,0.10,-0.13,-0.46,-3.91,9.00,34.22,5.29,-25.64,27.82
19466817,0.97,-0.23,0.02,0.10,-0.13,-0.96,-4.46,8.92,13.36,21.11,-16.12,27.78
19476432,0.97,-0.23,0.02,0.10,-0.10,-0.94,-5.51,9.09,-5.68,22.23,-14.30,27.78
19486047,0.97,-0.23,0.02,0.09,-0.10,-1.01,-4.39,8.69,8.67,7.32,-29.77,27.83
19495662,0.97,-0.23,0.02,0.09,-0.10,-0.48,-3.91,8.14,-6.73,7.60,-35.93,27.83
19505277,0.97,-0.23,0.02,0.09,-0.10,-0.58,-4.61,7.97,-30.53,20.13,-39.22,27.86
19514892,0.97,-0.24,0.02,0.08,-0.10,-0.58,-4.85,8.68,-35.15,23.98,-49.09,27.86
19524507,0.97,-0.24,0.02,0.08,-0.10,-0.19,-4.94,9.25,-27.80,19.85,-50.98,27.86
19534122,0.97,-0.24,0.02,0.07,-0.10,-0.79,-4.49,8.56,-2.46,15.30,-51.40,27.86
19543737,0.97,-0.24,0.02,0.07,-0.03,-0.51,-3.80,9.25,8.32,15.44,-38.17,27.80
19553352,0.97,-0.24,0.02,0.07,-0.03,-1.21,-3.91,9.26,20.85,13.34,-23.05,27.80
19562967,0.97,-0.23,0.02,0.07,-0.03,-0.92,-2.90,10.02,27.64,6.76,-10.24,27.86
19572582,0.97,-0.23,0.02,0.07,-0.03,-1.60,-2.75,9.56,6.15,-1.15,-0.02,27.86
19582197,0.97,-0.23,0.02,0.07,-0.03,-1.30,-4.12,9.71,-43.48,-5.56,9.57,27.82
19591812,0.97,-0.24,0.02,0.07,-0.03,-1.07,-5.59,9.76,-60.91,-8.78,9.92,27.82
19601427,0.97,-0.24,0.02,0.07,-0.03,-0.71,-5.14,8.61,-42.01,-19.63,-4.22,27.82
19611042,0.97,-0.25,0.02,0.07,-0.27,-0.91,-5.42,8.06,-42.01,-10.74,-5.83,27.81
19620657,0.96,-0.25,0.02,0.07,-0.27,-0.45,-6.38,8.57,-50.27,-10.74,-5.83,27.81
19630272,0.96,-0.26,0.02,0.07,-0.27,-0.45,-5.80,8.89,-50.76,1.72,-5.69,27.86
19639887,0.96,-0.26,0.02,0.07,-0.27,-0.67,-5.80,8.79,-9.53,1.93,-12.34,27.86
19649502,0.96,-0.26,0.02,0.07,-0.27,-0.49,-3.87,8.79,12.52,-3.88,-10.94,27.82
19659117,0.96,-0.26,0.02,0.07,-0.27,-1.13,-3.25,7.97,-14.85,-3.60,-1.14,27.82
19668732,0.96,-0.26,0.02,0.07,-0.27,-1.48,-5.81,7.89,-50.06,-8.08,9.43,27.81
19678347,0.96,-0.27,0.01,0.07,-0.16,0.25,-6.54,8.61,-41.10,-20.26,15.38,27.81
19687962,0.96,-0.27,0.01,0.07,-0.16,-0.62,-6.05,7.90,-26.75,-16.97,17.62,27.84
19697577,0.96,-0.27,0.01,0.07,-0.16,-0.70,-3.45,9.63,-32.63,-8.36,-17.73,27.80
19707192,0.96,-0.27,0.01,0.07,-0.16,-0.70,-3.45,9.63,-32.63,-8.36,-17.73,27.80
19716807,0.96,-0.28,0.01,0.07,-0.16,-1.01,-4.79,8.65,-47.33,-4.44,-23.61,27.80
19726422,0.96,-0.28,0.01,0.07,-0.16,-0.30,-3.46,7.93,-29.27,-14.17,-21.79,27.85
19736037,0.96,-0.28,0.01,0.06,-0.16,-0.37,-3.83,8.16,-28.50,-4.30,-7.37,27.85
19745652,0.96,-0.28,0.01,0.07,-0.35,-0.53,-4.83,9.05,-25.00,2.91,6.56,27.84
19755267,0.96,-0.28,0.01,0.07,-0.35,-0.50,-4.20,9.20,0.34,-8.36,11.39,27.84
19764882,0.96,-0.28,0.01,0.07,-0.35,0.01,-5.23,8.60,2.09,-10.46,11.32,27.82
19774497,0.96,-0.28,0.01,0.07,-0.35,-1.69,-5.97,7.67,0.27,-14.24,-0.79,27.82
19784112,0.96,-0.28,0.01,0.07,-0.35,-0.11,-4.78,8.91,-16.81,7.60,-3.03,27.79
